<CodeList xmlns="http://www.cdisc.org/ns/odm/v1.3" xmlns:nciodm="http://ncicb.nci.nih.gov/xml/odm/EVS/CDISC" xmlns:xs="http://www.w3.org/2001/XMLSchema-instance" OID="CL.C105140.ADCS-ADL TESTCD" Name="Alzheimer's Disease Cooperative Study-Activities of Daily Living Inventory Questionnaire Test Code" DataType="text" nciodm:ExtCodeID="C105140" nciodm:CodeListExtensible="No">
                <Description>
                    <TranslatedText xml:lang="en">Alzheimer's Disease Cooperative Study-Activities of Daily Living Inventory test code.</TranslatedText>
                </Description>
                <EnumeratedItem CodedValue="ADL0101" nciodm:ExtCodeID="C105283">
                    <nciodm:CDISCSynonym>ADL01-Usual Eating Performance</nciodm:CDISCSynonym>
                    <nciodm:CDISCDefinition>Alzheimer's Disease Cooperative Study-Activities of Daily Living Inventory - Regarding eating: which best describes {S} usual performance during the past 4 weeks?</nciodm:CDISCDefinition>
                    <nciodm:PreferredTerm>ADCS-ADL - Description of Usual Performance of Eating</nciodm:PreferredTerm>
                </EnumeratedItem>
                <EnumeratedItem CodedValue="ADL0102" nciodm:ExtCodeID="C105284">
                    <nciodm:CDISCSynonym>ADL01-Optimal Walking Performance</nciodm:CDISCSynonym>
                    <nciodm:CDISCDefinition>Alzheimer's Disease Cooperative Study-Activities of Daily Living Inventory - Regarding walking (or getting around in a wheelchair), in the past 4 weeks, which best describes his/her optimal performance.</nciodm:CDISCDefinition>
                    <nciodm:PreferredTerm>ADCS-ADL - Description of Optimal Performance of Walking</nciodm:PreferredTerm>
                </EnumeratedItem>
                <EnumeratedItem CodedValue="ADL0103" nciodm:ExtCodeID="C105285">
                    <nciodm:CDISCSynonym>ADL01-Usual Bowel/Bladder Function</nciodm:CDISCSynonym>
                    <nciodm:CDISCDefinition>Alzheimer's Disease Cooperative Study-Activities of Daily Living Inventory - Regarding bowel and bladder function at the toilet, which best describes his/her usual performance in the past 4 weeks.</nciodm:CDISCDefinition>
                    <nciodm:PreferredTerm>ADCS-ADL - Usual Bowel and Bladder Function at Toilet</nciodm:PreferredTerm>
                </EnumeratedItem>
                <EnumeratedItem CodedValue="ADL0104" nciodm:ExtCodeID="C105286">
                    <nciodm:CDISCSynonym>ADL01-Usual Bathing Performance</nciodm:CDISCSynonym>
                    <nciodm:CDISCDefinition>Alzheimer's Disease Cooperative Study-Activities of Daily Living Inventory - Regarding bathing, in the past 4 weeks, which best describes his/her usual performance.</nciodm:CDISCDefinition>
                    <nciodm:PreferredTerm>ADCS-ADL - Description of Usual Performance of Bathing</nciodm:PreferredTerm>
                </EnumeratedItem>
                <EnumeratedItem CodedValue="ADL0105" nciodm:ExtCodeID="C105287">
                    <nciodm:CDISCSynonym>ADL01-Optimal Grooming Performance</nciodm:CDISCSynonym>
                    <nciodm:CDISCDefinition>Alzheimer's Disease Cooperative Study-Activities of Daily Living Inventory - Regarding grooming, in the past 4 weeks, which best describes his/her optimal performance.</nciodm:CDISCDefinition>
                    <nciodm:PreferredTerm>ADCS-ADL - Description of Optimal Performance of Grooming</nciodm:PreferredTerm>
                </EnumeratedItem>
                <EnumeratedItem CodedValue="ADL0106" nciodm:ExtCodeID="C105288">
                    <nciodm:CDISCSynonym>ADL01-Select First Clothes for the Day</nciodm:CDISCSynonym>
                    <nciodm:CDISCDefinition>Alzheimer's Disease Cooperative Study-Activities of Daily Living Inventory - Regarding dressing in the past 4 weeks: Did {S} select his/her first set of clothes for the day?</nciodm:CDISCDefinition>
                    <nciodm:PreferredTerm>ADCS-ADL - Select First Clothes for the Day</nciodm:PreferredTerm>
                </EnumeratedItem>
                <EnumeratedItem CodedValue="ADL0106A" nciodm:ExtCodeID="C105289">
                    <nciodm:CDISCSynonym>ADL01-Usual Dressing Performance</nciodm:CDISCSynonym>
                    <nciodm:CDISCDefinition>Alzheimer's Disease Cooperative Study-Activities of Daily Living Inventory - If yes, which best describes usual performance.</nciodm:CDISCDefinition>
                    <nciodm:PreferredTerm>ADCS-ADL - Description of Usual Performance of Dressing</nciodm:PreferredTerm>
                </EnumeratedItem>
                <EnumeratedItem CodedValue="ADL0106B" nciodm:ExtCodeID="C105290">
                    <nciodm:CDISCSynonym>ADL01-Usual Physically Dressing Perform</nciodm:CDISCSynonym>
                    <nciodm:CDISCDefinition>Alzheimer's Disease Cooperative Study-Activities of Daily Living Inventory - Regarding physically getting dressed, which best describes his/her usual performance in the past 4 weeks.</nciodm:CDISCDefinition>
                    <nciodm:PreferredTerm>ADCS-ADL - Description of Usual Performance of Physically Getting Dressed</nciodm:PreferredTerm>
                </EnumeratedItem>
                <EnumeratedItem CodedValue="ADL0107" nciodm:ExtCodeID="C105291">
                    <nciodm:CDISCSynonym>ADL01-Use a Telephone</nciodm:CDISCSynonym>
                    <nciodm:CDISCDefinition>Alzheimer's Disease Cooperative Study-Activities of Daily Living Inventory - In the past 4 weeks, did {S} use a telephone?</nciodm:CDISCDefinition>
                    <nciodm:PreferredTerm>ADCS-ADL - Use a Telephone</nciodm:PreferredTerm>
                </EnumeratedItem>
                <EnumeratedItem CodedValue="ADL0107A" nciodm:ExtCodeID="C105292">
                    <nciodm:CDISCSynonym>ADL01-Highest Telephone Use Performance</nciodm:CDISCSynonym>
                    <nciodm:CDISCDefinition>Alzheimer's Disease Cooperative Study-Activities of Daily Living Inventory - If yes, which best describes his/her highest level of performance.</nciodm:CDISCDefinition>
                    <nciodm:PreferredTerm>ADCS-ADL - Description of Highest Performance of Telephone Use</nciodm:PreferredTerm>
                </EnumeratedItem>
                <EnumeratedItem CodedValue="ADL0108" nciodm:ExtCodeID="C105293">
                    <nciodm:CDISCSynonym>ADL01-Watch Television</nciodm:CDISCSynonym>
                    <nciodm:CDISCDefinition>Alzheimer's Disease Cooperative Study-Activities of Daily Living Inventory - In the past 4 weeks, did {S} watch television?</nciodm:CDISCDefinition>
                    <nciodm:PreferredTerm>ADCS-ADL - Watch Television</nciodm:PreferredTerm>
                </EnumeratedItem>
                <EnumeratedItem CodedValue="ADL0108A" nciodm:ExtCodeID="C105294">
                    <nciodm:CDISCSynonym>ADL01-Select Television Program</nciodm:CDISCSynonym>
                    <nciodm:CDISCDefinition>Alzheimer's Disease Cooperative Study-Activities of Daily Living Inventory - Did {S} usually select or ask for different programs or his/her favorite show?</nciodm:CDISCDefinition>
                    <nciodm:PreferredTerm>ADCS-ADL - Select or Ask for Television Program</nciodm:PreferredTerm>
                </EnumeratedItem>
                <EnumeratedItem CodedValue="ADL0108B" nciodm:ExtCodeID="C105295">
                    <nciodm:CDISCSynonym>ADL01-Talk About TV Content While Watch</nciodm:CDISCSynonym>
                    <nciodm:CDISCDefinition>Alzheimer's Disease Cooperative Study-Activities of Daily Living Inventory - Did {S} usually talk about the content of a program while watching it?</nciodm:CDISCDefinition>
                    <nciodm:PreferredTerm>ADCS-ADL - Talk About TV Content While Watching</nciodm:PreferredTerm>
                </EnumeratedItem>
                <EnumeratedItem CodedValue="ADL0108C" nciodm:ExtCodeID="C105296">
                    <nciodm:CDISCSynonym>ADL01-Talk About TV Content Within a Day</nciodm:CDISCSynonym>
                    <nciodm:CDISCDefinition>Alzheimer's Disease Cooperative Study-Activities of Daily Living Inventory - Did {S} talk about the content of a program within a day (24 hours) after watching it?</nciodm:CDISCDefinition>
                    <nciodm:PreferredTerm>ADCS-ADL - Talk About TV Content Within a Day After Watching</nciodm:PreferredTerm>
                </EnumeratedItem>
                <EnumeratedItem CodedValue="ADL0109" nciodm:ExtCodeID="C105297">
                    <nciodm:CDISCSynonym>ADL01-Pay Attention to Conversation</nciodm:CDISCSynonym>
                    <nciodm:CDISCDefinition>Alzheimer's Disease Cooperative Study-Activities of Daily Living Inventory - In the past 4 weeks, did {S} ever appear to pay attention to conversation or small talk for at least 5 minutes?</nciodm:CDISCDefinition>
                    <nciodm:PreferredTerm>ADCS-ADL - Pay Attention to Conversation</nciodm:PreferredTerm>
                </EnumeratedItem>
                <EnumeratedItem CodedValue="ADL0109A" nciodm:ExtCodeID="C105298">
                    <nciodm:CDISCSynonym>ADL01-Usual Conversation Participation</nciodm:CDISCSynonym>
                    <nciodm:CDISCDefinition>Alzheimer's Disease Cooperative Study-Activities of Daily Living Inventory - If yes, which best describes his/her usual degree of participation.</nciodm:CDISCDefinition>
                    <nciodm:PreferredTerm>ADCS-ADL - Usual Conversation Participation</nciodm:PreferredTerm>
                </EnumeratedItem>
                <EnumeratedItem CodedValue="ADL0110" nciodm:ExtCodeID="C105299">
                    <nciodm:CDISCSynonym>ADL01-Clear Dishes</nciodm:CDISCSynonym>
                    <nciodm:CDISCDefinition>Alzheimer's Disease Cooperative Study-Activities of Daily Living Inventory - Did {S} clear the dishes from the table after a meal or snack?</nciodm:CDISCDefinition>
                    <nciodm:PreferredTerm>ADCS-ADL - Clear Dishes After Meal or Snack</nciodm:PreferredTerm>
                </EnumeratedItem>
                <EnumeratedItem CodedValue="ADL0110A" nciodm:ExtCodeID="C105300">
                    <nciodm:CDISCSynonym>ADL01-Clear Dishes Usual Performance</nciodm:CDISCSynonym>
                    <nciodm:CDISCDefinition>Alzheimer's Disease Cooperative Study-Activities of Daily Living Inventory - If yes, which best describes how he/she usually performed.</nciodm:CDISCDefinition>
                    <nciodm:PreferredTerm>ADCS-ADL - Description of Usual Performance of Clearing Dishes</nciodm:PreferredTerm>
                </EnumeratedItem>
                <EnumeratedItem CodedValue="ADL0111" nciodm:ExtCodeID="C105301">
                    <nciodm:CDISCSynonym>ADL01-Find Belongings</nciodm:CDISCSynonym>
                    <nciodm:CDISCDefinition>Alzheimer's Disease Cooperative Study-Activities of Daily Living Inventory - In the past 4 weeks, did {S} usually manage to find his/her personal belongings at home?</nciodm:CDISCDefinition>
                    <nciodm:PreferredTerm>ADCS-ADL - Find Personal Belongings at Home</nciodm:PreferredTerm>
                </EnumeratedItem>
                <EnumeratedItem CodedValue="ADL0111A" nciodm:ExtCodeID="C105302">
                    <nciodm:CDISCSynonym>ADL01-Find Belongings Usual Performance</nciodm:CDISCSynonym>
                    <nciodm:CDISCDefinition>Alzheimer's Disease Cooperative Study-Activities of Daily Living Inventory - If yes, which best describes how he/she usually performed.</nciodm:CDISCDefinition>
                    <nciodm:PreferredTerm>ADCS-ADL - Description of Usual Performance of Finding Personal Belonging at Home</nciodm:PreferredTerm>
                </EnumeratedItem>
                <EnumeratedItem CodedValue="ADL0112" nciodm:ExtCodeID="C105303">
                    <nciodm:CDISCSynonym>ADL01-Obtain Beverage</nciodm:CDISCSynonym>
                    <nciodm:CDISCDefinition>Alzheimer's Disease Cooperative Study-Activities of Daily Living Inventory - In the past 4 weeks, did {S} obtain a hot or cold beverage for him/herself?</nciodm:CDISCDefinition>
                    <nciodm:PreferredTerm>ADCS-ADL - Obtain Beverage for Self</nciodm:PreferredTerm>
                </EnumeratedItem>
                <EnumeratedItem CodedValue="ADL0112A" nciodm:ExtCodeID="C105304">
                    <nciodm:CDISCSynonym>ADL01-Obtain Beverage Highest Perform</nciodm:CDISCSynonym>
                    <nciodm:CDISCDefinition>Alzheimer's Disease Cooperative Study-Activities of Daily Living Inventory - If yes, which best describes his/her highest level of performance.</nciodm:CDISCDefinition>
                    <nciodm:PreferredTerm>ADCS-ADL - Description of Highest Performance of Obtaining Beverage</nciodm:PreferredTerm>
                </EnumeratedItem>
                <EnumeratedItem CodedValue="ADL0113" nciodm:ExtCodeID="C105305">
                    <nciodm:CDISCSynonym>ADL01-Make a Meal</nciodm:CDISCSynonym>
                    <nciodm:CDISCDefinition>Alzheimer's Disease Cooperative Study-Activities of Daily Living Inventory - In the past 4 weeks, did {S} make him/herself a meal or snack at home?</nciodm:CDISCDefinition>
                    <nciodm:PreferredTerm>ADCS-ADL - Make a Meal or Snack at Home</nciodm:PreferredTerm>
                </EnumeratedItem>
                <EnumeratedItem CodedValue="ADL0113A" nciodm:ExtCodeID="C105306">
                    <nciodm:CDISCSynonym>ADL01-Highest Level of Food Preparation</nciodm:CDISCSynonym>
                    <nciodm:CDISCDefinition>Alzheimer's Disease Cooperative Study-Activities of Daily Living Inventory - If yes, which best describes his/her highest level of food preparation.</nciodm:CDISCDefinition>
                    <nciodm:PreferredTerm>ADCS-ADL - Highest Level of Food Preparation</nciodm:PreferredTerm>
                </EnumeratedItem>
                <EnumeratedItem CodedValue="ADL0114" nciodm:ExtCodeID="C105307">
                    <nciodm:CDISCSynonym>ADL01-Dispose of Garbage</nciodm:CDISCSynonym>
                    <nciodm:CDISCDefinition>Alzheimer's Disease Cooperative Study-Activities of Daily Living Inventory - In the past 4 weeks, did {S} dispose of garbage or litter in an appropriate place or container at home?</nciodm:CDISCDefinition>
                    <nciodm:PreferredTerm>ADCS-ADL - Dispose of Garbage in Appropriate Place at Home</nciodm:PreferredTerm>
                </EnumeratedItem>
                <EnumeratedItem CodedValue="ADL0114A" nciodm:ExtCodeID="C105308">
                    <nciodm:CDISCSynonym>ADL01-Dispose Garbage Usual Performance</nciodm:CDISCSynonym>
                    <nciodm:CDISCDefinition>Alzheimer's Disease Cooperative Study-Activities of Daily Living Inventory - If yes, which best describes how he/she usually performed.</nciodm:CDISCDefinition>
                    <nciodm:PreferredTerm>ADCS-ADL - Description of Usual Performance of Garbage Disposal</nciodm:PreferredTerm>
                </EnumeratedItem>
                <EnumeratedItem CodedValue="ADL0115" nciodm:ExtCodeID="C105309">
                    <nciodm:CDISCSynonym>ADL01-Get Around Outside Home</nciodm:CDISCSynonym>
                    <nciodm:CDISCDefinition>Alzheimer's Disease Cooperative Study-Activities of Daily Living Inventory - In the past 4 weeks, did {S} get around (or travel) outside of his/her home?</nciodm:CDISCDefinition>
                    <nciodm:PreferredTerm>ADCS-ADL - Get Around Outside Home</nciodm:PreferredTerm>
                </EnumeratedItem>
                <EnumeratedItem CodedValue="ADL0115A" nciodm:ExtCodeID="C105310">
                    <nciodm:CDISCSynonym>ADL01-Get Around Optimal Performance</nciodm:CDISCSynonym>
                    <nciodm:CDISCDefinition>Alzheimer's Disease Cooperative Study-Activities of Daily Living Inventory - If yes, which best describes his/her optimal performance.</nciodm:CDISCDefinition>
                    <nciodm:PreferredTerm>ADCS-ADL - Description of Optimal Performance of Getting Around Outside of Home</nciodm:PreferredTerm>
                </EnumeratedItem>
                <EnumeratedItem CodedValue="ADL0116" nciodm:ExtCodeID="C105311">
                    <nciodm:CDISCSynonym>ADL01-Go Shopping</nciodm:CDISCSynonym>
                    <nciodm:CDISCDefinition>Alzheimer's Disease Cooperative Study-Activities of Daily Living Inventory - In the past 4 weeks, did {S} ever go shopping?</nciodm:CDISCDefinition>
                    <nciodm:PreferredTerm>ADCS-ADL - Go Shopping</nciodm:PreferredTerm>
                </EnumeratedItem>
                <EnumeratedItem CodedValue="ADL0116A" nciodm:ExtCodeID="C105312">
                    <nciodm:CDISCSynonym>ADL01-How Usually Selects Items</nciodm:CDISCSynonym>
                    <nciodm:CDISCDefinition>Alzheimer's Disease Cooperative Study-Activities of Daily Living Inventory - Which one best describes how {S} usually selects items.</nciodm:CDISCDefinition>
                    <nciodm:PreferredTerm>ADCS-ADL - How Subject Usually Selects Items</nciodm:PreferredTerm>
                </EnumeratedItem>
                <EnumeratedItem CodedValue="ADL0116B" nciodm:ExtCodeID="C105313">
                    <nciodm:CDISCSynonym>ADL01-Pay Without Supervision</nciodm:CDISCSynonym>
                    <nciodm:CDISCDefinition>Alzheimer's Disease Cooperative Study-Activities of Daily Living Inventory - Did {S} usually pay for items without supervision or physical help?</nciodm:CDISCDefinition>
                    <nciodm:PreferredTerm>ADCS-ADL - Pay for Items Without Supervision or Physical Help</nciodm:PreferredTerm>
                </EnumeratedItem>
                <EnumeratedItem CodedValue="ADL0117" nciodm:ExtCodeID="C105314">
                    <nciodm:CDISCSynonym>ADL01-Keep Appointments</nciodm:CDISCSynonym>
                    <nciodm:CDISCDefinition>Alzheimer's Disease Cooperative Study-Activities of Daily Living Inventory - In the past 4 weeks, did {S} keep appointments or meetings with other people, such as relatives, a doctor, the hairdresser, etc.?</nciodm:CDISCDefinition>
                    <nciodm:PreferredTerm>ADCS-ADL - Keep Appointments or Meetings with Others</nciodm:PreferredTerm>
                </EnumeratedItem>
                <EnumeratedItem CodedValue="ADL0117A" nciodm:ExtCodeID="C105315">
                    <nciodm:CDISCSynonym>ADL01-Aware of Appointment Ahead of Time</nciodm:CDISCSynonym>
                    <nciodm:CDISCDefinition>Alzheimer's Disease Cooperative Study-Activities of Daily Living Inventory - If yes, which best describes his/her awareness of the meeting ahead of time.</nciodm:CDISCDefinition>
                    <nciodm:PreferredTerm>ADCS-ADL - Description of Awareness of Appointment Ahead of Time</nciodm:PreferredTerm>
                </EnumeratedItem>
                <EnumeratedItem CodedValue="ADL0118" nciodm:ExtCodeID="C105316">
                    <nciodm:CDISCSynonym>ADL01-Left On His/Her Own</nciodm:CDISCSynonym>
                    <nciodm:CDISCDefinition>Alzheimer's Disease Cooperative Study-Activities of Daily Living Inventory - In the past 4 weeks, was {S} ever left on his/her own?</nciodm:CDISCDefinition>
                    <nciodm:PreferredTerm>ADCS-ADL - Subject Left on Their Own</nciodm:PreferredTerm>
                </EnumeratedItem>
                <EnumeratedItem CodedValue="ADL0118A" nciodm:ExtCodeID="C105317">
                    <nciodm:CDISCSynonym>ADL01-Left Away From Home</nciodm:CDISCSynonym>
                    <nciodm:CDISCDefinition>Alzheimer's Disease Cooperative Study-Activities of Daily Living Inventory - Was {S} left away from home, for 15 minutes or longer, during the day?</nciodm:CDISCDefinition>
                    <nciodm:PreferredTerm>ADCS-ADL - Left Away From Home for Fifteen Minutes or Longer</nciodm:PreferredTerm>
                </EnumeratedItem>
                <EnumeratedItem CodedValue="ADL0118B" nciodm:ExtCodeID="C105318">
                    <nciodm:CDISCSynonym>ADL01-Left at Home for 1 Hour or Longer</nciodm:CDISCSynonym>
                    <nciodm:CDISCDefinition>Alzheimer's Disease Cooperative Study-Activities of Daily Living Inventory - Was {S} left: at home, for an hour or longer, during the day?</nciodm:CDISCDefinition>
                    <nciodm:PreferredTerm>ADCS-ADL - Left at Home for One Hour or Longer</nciodm:PreferredTerm>
                </EnumeratedItem>
                <EnumeratedItem CodedValue="ADL0118C" nciodm:ExtCodeID="C105319">
                    <nciodm:CDISCSynonym>ADL01-Left at Home for Less Than 1 Hour</nciodm:CDISCSynonym>
                    <nciodm:CDISCDefinition>Alzheimer's Disease Cooperative Study-Activities of Daily Living Inventory - Was {S} left at home, for less than 1 hour, during the day?</nciodm:CDISCDefinition>
                    <nciodm:PreferredTerm>ADCS-ADL - Left at Home for Less Than One Hour</nciodm:PreferredTerm>
                </EnumeratedItem>
                <EnumeratedItem CodedValue="ADL0119" nciodm:ExtCodeID="C105320">
                    <nciodm:CDISCSynonym>ADL01-Talk About Current Events</nciodm:CDISCSynonym>
                    <nciodm:CDISCDefinition>Alzheimer's Disease Cooperative Study-Activities of Daily Living Inventory - In the past 4 weeks, did {S} talk about current events?</nciodm:CDISCDefinition>
                    <nciodm:PreferredTerm>ADCS-ADL - Talk About Current Events</nciodm:PreferredTerm>
                </EnumeratedItem>
                <EnumeratedItem CodedValue="ADL0119A" nciodm:ExtCodeID="C105321">
                    <nciodm:CDISCSynonym>ADL01-Talk About Events Heard/Read About</nciodm:CDISCSynonym>
                    <nciodm:CDISCDefinition>Alzheimer's Disease Cooperative Study-Activities of Daily Living Inventory - Did {S} talk about events that he/she heard or read about or saw on TV but did not take part in?</nciodm:CDISCDefinition>
                    <nciodm:PreferredTerm>ADCS-ADL - Talk About Events on TV that Subject Did not Take Part In</nciodm:PreferredTerm>
                </EnumeratedItem>
                <EnumeratedItem CodedValue="ADL0119B" nciodm:ExtCodeID="C105322">
                    <nciodm:CDISCSynonym>ADL01-Talk About Outside Events</nciodm:CDISCSynonym>
                    <nciodm:CDISCDefinition>Alzheimer's Disease Cooperative Study-Activities of Daily Living Inventory - Did {S} talk about events that he/she took part in outside home involving family, friends, or neighbors?</nciodm:CDISCDefinition>
                    <nciodm:PreferredTerm>ADCS-ADL - Talk About Events Outside of Home that Subject Took Part In</nciodm:PreferredTerm>
                </EnumeratedItem>
                <EnumeratedItem CodedValue="ADL0119C" nciodm:ExtCodeID="C105323">
                    <nciodm:CDISCSynonym>ADL01-Talk About at Home Events</nciodm:CDISCSynonym>
                    <nciodm:CDISCDefinition>Alzheimer's Disease Cooperative Study-Activities of Daily Living Inventory - Did {S} talk about events that occurred at home that he/she took part in or watched?</nciodm:CDISCDefinition>
                    <nciodm:PreferredTerm>ADCS-ADL - Talk About Events at Home that Subject Took Part in or Watched</nciodm:PreferredTerm>
                </EnumeratedItem>
                <EnumeratedItem CodedValue="ADL0120" nciodm:ExtCodeID="C105324">
                    <nciodm:CDISCSynonym>ADL01-Read More Than 5 Minutes</nciodm:CDISCSynonym>
                    <nciodm:CDISCDefinition>Alzheimer's Disease Cooperative Study-Activities of Daily Living Inventory - In the past 4 weeks, did {S} read a magazine, newspaper or book for more than 5 minutes at a time?</nciodm:CDISCDefinition>
                    <nciodm:PreferredTerm>ADCS-ADL - Read for More Than Five Minutes</nciodm:PreferredTerm>
                </EnumeratedItem>
                <EnumeratedItem CodedValue="ADL0120A" nciodm:ExtCodeID="C105325">
                    <nciodm:CDISCSynonym>ADL01-Talk Within 1 Hour After Reading</nciodm:CDISCSynonym>
                    <nciodm:CDISCDefinition>Alzheimer's Disease Cooperative Study-Activities of Daily Living Inventory - Did {S} usually talk about details of what he/she read while or shortly (less than 1 hour) after reading?</nciodm:CDISCDefinition>
                    <nciodm:PreferredTerm>ADCS-ADL - Talk About What Subject Read Less Than One Hour After Reading</nciodm:PreferredTerm>
                </EnumeratedItem>
                <EnumeratedItem CodedValue="ADL0120B" nciodm:ExtCodeID="C105326">
                    <nciodm:CDISCSynonym>ADL01-Talk 1 Hour or More After Reading</nciodm:CDISCSynonym>
                    <nciodm:CDISCDefinition>Alzheimer's Disease Cooperative Study-Activities of Daily Living Inventory - Did {S} usually talk about what he/she read 1 hour or longer after reading?</nciodm:CDISCDefinition>
                    <nciodm:PreferredTerm>ADCS-ADL - Talk About What Subject Read More Than One Hour After Reading</nciodm:PreferredTerm>
                </EnumeratedItem>
                <EnumeratedItem CodedValue="ADL0121" nciodm:ExtCodeID="C105327">
                    <nciodm:CDISCSynonym>ADL01-Write Things Down</nciodm:CDISCSynonym>
                    <nciodm:CDISCDefinition>Alzheimer's Disease Cooperative Study-Activities of Daily Living Inventory - In the past 4 weeks, did {S} ever write things down?</nciodm:CDISCDefinition>
                    <nciodm:PreferredTerm>ADCS-ADL - Write Things Down</nciodm:PreferredTerm>
                </EnumeratedItem>
                <EnumeratedItem CodedValue="ADL0121A" nciodm:ExtCodeID="C105328">
                    <nciodm:CDISCSynonym>ADL01-Most Complicated Writings</nciodm:CDISCSynonym>
                    <nciodm:CDISCDefinition>Alzheimer's Disease Cooperative Study-Activities of Daily Living Inventory - If yes, which best describes the most complicated things that he/she wrote.</nciodm:CDISCDefinition>
                    <nciodm:PreferredTerm>ADCS-ADL - Description of Most Complicated Writings</nciodm:PreferredTerm>
                </EnumeratedItem>
                <EnumeratedItem CodedValue="ADL0122" nciodm:ExtCodeID="C105329">
                    <nciodm:CDISCSynonym>ADL01-Perform Pastime</nciodm:CDISCSynonym>
                    <nciodm:CDISCDefinition>Alzheimer's Disease Cooperative Study-Activities of Daily Living Inventory - In the past 4 weeks, did {S} perform a pastime, hobby or game?</nciodm:CDISCDefinition>
                    <nciodm:PreferredTerm>ADCS-ADL - Perform Pastime, Hobby or Game</nciodm:PreferredTerm>
                </EnumeratedItem>
                <EnumeratedItem CodedValue="ADL0122A" nciodm:ExtCodeID="C105330">
                    <nciodm:CDISCSynonym>ADL01-Pastime: Card or Board Games</nciodm:CDISCSynonym>
                    <nciodm:CDISCDefinition>Alzheimer's Disease Cooperative Study-Activities of Daily Living Inventory - Which pastimes did he/she perform: Card or board games.</nciodm:CDISCDefinition>
                    <nciodm:PreferredTerm>ADCS-ADL - Pastime: Card or Board Games</nciodm:PreferredTerm>
                </EnumeratedItem>
                <EnumeratedItem CodedValue="ADL0122B" nciodm:ExtCodeID="C105331">
                    <nciodm:CDISCSynonym>ADL01-Pastime: Bingo</nciodm:CDISCSynonym>
                    <nciodm:CDISCDefinition>Alzheimer's Disease Cooperative Study-Activities of Daily Living Inventory - Which pastimes did he/she perform: bingo.</nciodm:CDISCDefinition>
                    <nciodm:PreferredTerm>ADCS-ADL - Pastime: Bingo</nciodm:PreferredTerm>
                </EnumeratedItem>
                <EnumeratedItem CodedValue="ADL0122C" nciodm:ExtCodeID="C105332">
                    <nciodm:CDISCSynonym>ADL01-Pastime: Crosswords</nciodm:CDISCSynonym>
                    <nciodm:CDISCDefinition>Alzheimer's Disease Cooperative Study-Activities of Daily Living Inventory - Which pastimes did he/she perform: crosswords.</nciodm:CDISCDefinition>
                    <nciodm:PreferredTerm>ADCS-ADL - Pastime: Crosswords</nciodm:PreferredTerm>
                </EnumeratedItem>
                <EnumeratedItem CodedValue="ADL0122D" nciodm:ExtCodeID="C105333">
                    <nciodm:CDISCSynonym>ADL01-Pastime: Art</nciodm:CDISCSynonym>
                    <nciodm:CDISCDefinition>Alzheimer's Disease Cooperative Study-Activities of Daily Living Inventory - Which pastimes did he/she perform: art.</nciodm:CDISCDefinition>
                    <nciodm:PreferredTerm>ADCS-ADL - Pastime: Art</nciodm:PreferredTerm>
                </EnumeratedItem>
                <EnumeratedItem CodedValue="ADL0122E" nciodm:ExtCodeID="C105334">
                    <nciodm:CDISCSynonym>ADL01-Pastime: Musical Instrument</nciodm:CDISCSynonym>
                    <nciodm:CDISCDefinition>Alzheimer's Disease Cooperative Study-Activities of Daily Living Inventory - Which pastimes did he/she perform: musical instrument.</nciodm:CDISCDefinition>
                    <nciodm:PreferredTerm>ADCS-ADL - Pastime: Musical Instrument</nciodm:PreferredTerm>
                </EnumeratedItem>
                <EnumeratedItem CodedValue="ADL0122F" nciodm:ExtCodeID="C105335">
                    <nciodm:CDISCSynonym>ADL01-Pastime: Knitting</nciodm:CDISCSynonym>
                    <nciodm:CDISCDefinition>Alzheimer's Disease Cooperative Study-Activities of Daily Living Inventory - Which pastimes did he/she perform: knitting.</nciodm:CDISCDefinition>
                    <nciodm:PreferredTerm>ADCS-ADL - Pastime: Knitting</nciodm:PreferredTerm>
                </EnumeratedItem>
                <EnumeratedItem CodedValue="ADL0122G" nciodm:ExtCodeID="C105336">
                    <nciodm:CDISCSynonym>ADL01-Pastime: Sewing</nciodm:CDISCSynonym>
                    <nciodm:CDISCDefinition>Alzheimer's Disease Cooperative Study-Activities of Daily Living Inventory - Which pastimes did he/she perform: sewing.</nciodm:CDISCDefinition>
                    <nciodm:PreferredTerm>ADCS-ADL - Pastime: Sewing</nciodm:PreferredTerm>
                </EnumeratedItem>
                <EnumeratedItem CodedValue="ADL0122H" nciodm:ExtCodeID="C105337">
                    <nciodm:CDISCSynonym>ADL01-Pastime: Reading</nciodm:CDISCSynonym>
                    <nciodm:CDISCDefinition>Alzheimer's Disease Cooperative Study-Activities of Daily Living Inventory - Which pastimes did he/she perform: reading.</nciodm:CDISCDefinition>
                    <nciodm:PreferredTerm>ADCS-ADL - Pastime: Reading</nciodm:PreferredTerm>
                </EnumeratedItem>
                <EnumeratedItem CodedValue="ADL0122I" nciodm:ExtCodeID="C105338">
                    <nciodm:CDISCSynonym>ADL01-Pastime: Gardening</nciodm:CDISCSynonym>
                    <nciodm:CDISCDefinition>Alzheimer's Disease Cooperative Study-Activities of Daily Living Inventory - Which pastimes did he/she perform: gardening.</nciodm:CDISCDefinition>
                    <nciodm:PreferredTerm>ADCS-ADL - Pastime: Gardening</nciodm:PreferredTerm>
                </EnumeratedItem>
                <EnumeratedItem CodedValue="ADL0122J" nciodm:ExtCodeID="C105339">
                    <nciodm:CDISCSynonym>ADL01-Pastime: Golf</nciodm:CDISCSynonym>
                    <nciodm:CDISCDefinition>Alzheimer's Disease Cooperative Study-Activities of Daily Living Inventory - Which pastimes did he/she perform: golf.</nciodm:CDISCDefinition>
                    <nciodm:PreferredTerm>ADCS-ADL - Pastime: Golf</nciodm:PreferredTerm>
                </EnumeratedItem>
                <EnumeratedItem CodedValue="ADL0122K" nciodm:ExtCodeID="C105340">
                    <nciodm:CDISCSynonym>ADL01-Pastime: Tennis</nciodm:CDISCSynonym>
                    <nciodm:CDISCDefinition>Alzheimer's Disease Cooperative Study-Activities of Daily Living Inventory - Which pastimes did he/she perform: tennis.</nciodm:CDISCDefinition>
                    <nciodm:PreferredTerm>ADCS-ADL - Pastime: Tennis</nciodm:PreferredTerm>
                </EnumeratedItem>
                <EnumeratedItem CodedValue="ADL0122L" nciodm:ExtCodeID="C105341">
                    <nciodm:CDISCSynonym>ADL01-Pastime: Workshop</nciodm:CDISCSynonym>
                    <nciodm:CDISCDefinition>Alzheimer's Disease Cooperative Study-Activities of Daily Living Inventory - Which pastimes did he/she perform: workshop.</nciodm:CDISCDefinition>
                    <nciodm:PreferredTerm>ADCS-ADL - Pastime: Workshop</nciodm:PreferredTerm>
                </EnumeratedItem>
                <EnumeratedItem CodedValue="ADL0122M" nciodm:ExtCodeID="C105342">
                    <nciodm:CDISCSynonym>ADL01-Pastime: Fishing</nciodm:CDISCSynonym>
                    <nciodm:CDISCDefinition>Alzheimer's Disease Cooperative Study-Activities of Daily Living Inventory - Which pastimes did he/she perform: fishing.</nciodm:CDISCDefinition>
                    <nciodm:PreferredTerm>ADCS-ADL - Pastime: Fishing</nciodm:PreferredTerm>
                </EnumeratedItem>
                <EnumeratedItem CodedValue="ADL0122N" nciodm:ExtCodeID="C105343">
                    <nciodm:CDISCSynonym>ADL01-Pastime: Other</nciodm:CDISCSynonym>
                    <nciodm:CDISCDefinition>Alzheimer's Disease Cooperative Study-Activities of Daily Living Inventory - Which pastimes did he/she perform: other.</nciodm:CDISCDefinition>
                    <nciodm:PreferredTerm>ADCS-ADL - Pastime: Other</nciodm:PreferredTerm>
                </EnumeratedItem>
                <EnumeratedItem CodedValue="ADL0122O" nciodm:ExtCodeID="C105344">
                    <nciodm:CDISCSynonym>ADL01-Pastime: Other Specify</nciodm:CDISCSynonym>
                    <nciodm:CDISCDefinition>Alzheimer's Disease Cooperative Study-Activities of Daily Living Inventory - Which pastimes did he/she perform: other specify.</nciodm:CDISCDefinition>
                    <nciodm:PreferredTerm>ADCS-ADL - Pastime: Other Specify</nciodm:PreferredTerm>
                </EnumeratedItem>
                <EnumeratedItem CodedValue="ADL0122P" nciodm:ExtCodeID="C105345">
                    <nciodm:CDISCSynonym>ADL01-Hobbies Only at Day Care</nciodm:CDISCSynonym>
                    <nciodm:CDISCDefinition>Alzheimer's Disease Cooperative Study-Activities of Daily Living Inventory - If {S} performs hobbies/pastimes only at day care, check here.</nciodm:CDISCDefinition>
                    <nciodm:PreferredTerm>ADCS-ADL - Performed Hobbies Only at Day Care</nciodm:PreferredTerm>
                </EnumeratedItem>
                <EnumeratedItem CodedValue="ADL0122Q" nciodm:ExtCodeID="C105346">
                    <nciodm:CDISCSynonym>ADL01-Usual Common Pastimes Performance</nciodm:CDISCSynonym>
                    <nciodm:CDISCDefinition>Alzheimer's Disease Cooperative Study-Activities of Daily Living Inventory - If yes, how did {S} usually perform his/her most common pastimes.</nciodm:CDISCDefinition>
                    <nciodm:PreferredTerm>ADCS-ADL - Description of Usual Performance of Common Pastimes</nciodm:PreferredTerm>
                </EnumeratedItem>
                <EnumeratedItem CodedValue="ADL0123" nciodm:ExtCodeID="C105347">
                    <nciodm:CDISCSynonym>ADL01-Use Household Appliance</nciodm:CDISCSynonym>
                    <nciodm:CDISCDefinition>Alzheimer's Disease Cooperative Study-Activities of Daily Living Inventory - In the past 4 weeks, did {S} use a household appliance to do chores?</nciodm:CDISCDefinition>
                    <nciodm:PreferredTerm>ADCS-ADL - Use Household Appliance to do Chores</nciodm:PreferredTerm>
                </EnumeratedItem>
                <EnumeratedItem CodedValue="ADL0123A" nciodm:ExtCodeID="C105348">
                    <nciodm:CDISCSynonym>ADL01-Appliance: Washer</nciodm:CDISCSynonym>
                    <nciodm:CDISCDefinition>Alzheimer's Disease Cooperative Study-Activities of Daily Living Inventory - Check all that were used: washer.</nciodm:CDISCDefinition>
                    <nciodm:PreferredTerm>ADCS-ADL - Appliance: Washer</nciodm:PreferredTerm>
                </EnumeratedItem>
                <EnumeratedItem CodedValue="ADL0123B" nciodm:ExtCodeID="C105349">
                    <nciodm:CDISCSynonym>ADL01-Appliance: Dryer</nciodm:CDISCSynonym>
                    <nciodm:CDISCDefinition>Alzheimer's Disease Cooperative Study-Activities of Daily Living Inventory - Check all that were used: dryer.</nciodm:CDISCDefinition>
                    <nciodm:PreferredTerm>ADCS-ADL - Appliance: Dryer</nciodm:PreferredTerm>
                </EnumeratedItem>
                <EnumeratedItem CodedValue="ADL0123C" nciodm:ExtCodeID="C105350">
                    <nciodm:CDISCSynonym>ADL01-Appliance: Vacuum</nciodm:CDISCSynonym>
                    <nciodm:CDISCDefinition>Alzheimer's Disease Cooperative Study-Activities of Daily Living Inventory - Check all that were used: vacuum.</nciodm:CDISCDefinition>
                    <nciodm:PreferredTerm>ADCS-ADL - Appliance: Vacuum</nciodm:PreferredTerm>
                </EnumeratedItem>
                <EnumeratedItem CodedValue="ADL0123D" nciodm:ExtCodeID="C105351">
                    <nciodm:CDISCSynonym>ADL01-Appliance: Dishwasher</nciodm:CDISCSynonym>
                    <nciodm:CDISCDefinition>Alzheimer's Disease Cooperative Study-Activities of Daily Living Inventory - Check all that were used: dishwasher.</nciodm:CDISCDefinition>
                    <nciodm:PreferredTerm>ADCS-ADL - Appliance: Dishwasher</nciodm:PreferredTerm>
                </EnumeratedItem>
                <EnumeratedItem CodedValue="ADL0123E" nciodm:ExtCodeID="C105352">
                    <nciodm:CDISCSynonym>ADL01-Appliance: Toaster</nciodm:CDISCSynonym>
                    <nciodm:CDISCDefinition>Alzheimer's Disease Cooperative Study-Activities of Daily Living Inventory - Check all that were used: toaster.</nciodm:CDISCDefinition>
                    <nciodm:PreferredTerm>ADCS-ADL - Appliance: Toaster</nciodm:PreferredTerm>
                </EnumeratedItem>
                <EnumeratedItem CodedValue="ADL0123F" nciodm:ExtCodeID="C105353">
                    <nciodm:CDISCSynonym>ADL01-Appliance: Toaster Oven</nciodm:CDISCSynonym>
                    <nciodm:CDISCDefinition>Alzheimer's Disease Cooperative Study-Activities of Daily Living Inventory - Check all that were used: toaster oven.</nciodm:CDISCDefinition>
                    <nciodm:PreferredTerm>ADCS-ADL - Appliance: Toaster Oven</nciodm:PreferredTerm>
                </EnumeratedItem>
                <EnumeratedItem CodedValue="ADL0123G" nciodm:ExtCodeID="C105354">
                    <nciodm:CDISCSynonym>ADL01-Appliance: Range</nciodm:CDISCSynonym>
                    <nciodm:CDISCDefinition>Alzheimer's Disease Cooperative Study-Activities of Daily Living Inventory - Check all that were used: range.</nciodm:CDISCDefinition>
                    <nciodm:PreferredTerm>ADCS-ADL - Appliance: Range</nciodm:PreferredTerm>
                </EnumeratedItem>
                <EnumeratedItem CodedValue="ADL0123H" nciodm:ExtCodeID="C105355">
                    <nciodm:CDISCSynonym>ADL01-Appliance: Microwave</nciodm:CDISCSynonym>
                    <nciodm:CDISCDefinition>Alzheimer's Disease Cooperative Study-Activities of Daily Living Inventory - Check all that were used: microwave.</nciodm:CDISCDefinition>
                    <nciodm:PreferredTerm>ADCS-ADL - Appliance: Microwave</nciodm:PreferredTerm>
                </EnumeratedItem>
                <EnumeratedItem CodedValue="ADL0123I" nciodm:ExtCodeID="C105356">
                    <nciodm:CDISCSynonym>ADL01-Appliance: Food Processor</nciodm:CDISCSynonym>
                    <nciodm:CDISCDefinition>Alzheimer's Disease Cooperative Study-Activities of Daily Living Inventory - Check all that were used: food processor.</nciodm:CDISCDefinition>
                    <nciodm:PreferredTerm>ADCS-ADL - Appliance: Food Processor</nciodm:PreferredTerm>
                </EnumeratedItem>
                <EnumeratedItem CodedValue="ADL0123J" nciodm:ExtCodeID="C105357">
                    <nciodm:CDISCSynonym>ADL01-Appliance: Other</nciodm:CDISCSynonym>
                    <nciodm:CDISCDefinition>Alzheimer's Disease Cooperative Study-Activities of Daily Living Inventory - Check all that were used: other.</nciodm:CDISCDefinition>
                    <nciodm:PreferredTerm>ADCS-ADL - Appliance: Other</nciodm:PreferredTerm>
                </EnumeratedItem>
                <EnumeratedItem CodedValue="ADL0123K" nciodm:ExtCodeID="C105358">
                    <nciodm:CDISCSynonym>ADL01-Appliance: Other Specify</nciodm:CDISCSynonym>
                    <nciodm:CDISCDefinition>Alzheimer's Disease Cooperative Study-Activities of Daily Living Inventory - Check all that were used: other specify.</nciodm:CDISCDefinition>
                    <nciodm:PreferredTerm>ADCS-ADL - Appliance: Other Specify</nciodm:PreferredTerm>
                </EnumeratedItem>
                <EnumeratedItem CodedValue="ADL0123L" nciodm:ExtCodeID="C105359">
                    <nciodm:CDISCSynonym>ADL01-Use Common Used Appliances</nciodm:CDISCSynonym>
                    <nciodm:CDISCDefinition>Alzheimer's Disease Cooperative Study-Activities of Daily Living Inventory - If yes, for the most commonly used appliances, which best describes how {S} usually used them.</nciodm:CDISCDefinition>
                    <nciodm:PreferredTerm>ADCS-ADL - Description of Usual Use of Commonly Used Appliances</nciodm:PreferredTerm>
                </EnumeratedItem>
                <EnumeratedItem CodedValue="ADL0124" nciodm:ExtCodeID="C105360">
                    <nciodm:CDISCSynonym>ADL01-Total ADCS-ADL Score</nciodm:CDISCSynonym>
                    <nciodm:CDISCDefinition>Alzheimer's Disease Cooperative Study-Activities of Daily Living Inventory - Total Score.</nciodm:CDISCDefinition>
                    <nciodm:PreferredTerm>ADCS-ADL - Total Score</nciodm:PreferredTerm>
                </EnumeratedItem>
                <EnumeratedItem CodedValue="ADL0125" nciodm:ExtCodeID="C105361">
                    <nciodm:CDISCSynonym>ADL01-Number Don't Know Responses</nciodm:CDISCSynonym>
                    <nciodm:CDISCDefinition>Alzheimer's Disease Cooperative Study-Activities of Daily Living Inventory - Number of 'Don't Know' Responses.</nciodm:CDISCDefinition>
                    <nciodm:PreferredTerm>ADCS-ADL - Number of 'Don't Know' Responses</nciodm:PreferredTerm>
                </EnumeratedItem>
                <nciodm:CDISCSubmissionValue>ADCS-ADL TESTCD</nciodm:CDISCSubmissionValue>
                <nciodm:CDISCSynonym>Alzheimer's Disease Cooperative Study-Activities of Daily Living Inventory Questionnaire Test Code</nciodm:CDISCSynonym>
                <nciodm:PreferredTerm>CDISC Questionnaire ADCS-ADL Test Code Terminology</nciodm:PreferredTerm>
            </CodeList>
            
