<CodeList xmlns="http://www.cdisc.org/ns/odm/v1.3" xmlns:nciodm="http://ncicb.nci.nih.gov/xml/odm/EVS/CDISC" xmlns:xs="http://www.w3.org/2001/XMLSchema-instance" OID="CL.C90013.EGLEAD" Name="ECG Lead" DataType="text" nciodm:ExtCodeID="C90013" nciodm:CodeListExtensible="Yes">
                <Description>
                    <TranslatedText xml:lang="en">Terminology related to electrocardiogram lead names.</TranslatedText>
                </Description>
                <EnumeratedItem CodedValue="LEAD aV6" nciodm:ExtCodeID="C90403">
                    <nciodm:CDISCDefinition>An augmented unipolar lead placed at the sixth intercostal space on the midaxillary line. (NCI)</nciodm:CDISCDefinition>
                    <nciodm:PreferredTerm>Lead Site aV6</nciodm:PreferredTerm>
                </EnumeratedItem>
                <EnumeratedItem CodedValue="LEAD aVF" nciodm:ExtCodeID="C90360">
                    <nciodm:CDISCDefinition>An augmented unipolar electrocardiogram limb lead in which the positive (red) electrode is situated on the left pelvic limb and the negative electrode is a combination of the right thoracic limb (white) electrode and the left thoracic limb (black) electrode. Measures the electrical activity of the electrode on the left pelvic limb.</nciodm:CDISCDefinition>
                    <nciodm:PreferredTerm>Augmented Vector Foot</nciodm:PreferredTerm>
                </EnumeratedItem>
                <EnumeratedItem CodedValue="LEAD aVL" nciodm:ExtCodeID="C90361">
                    <nciodm:CDISCDefinition>An augmented unipolar electrocardiogram limb lead in which the positive (black) electrode is situated on the left thoracic limb and the negative electrode is a combination of the right thoracic limb (white) electrode and the left pelvic limb (red) electrode. Measures the electrical activity of the electrode on the left thoracic limb. (NCI)</nciodm:CDISCDefinition>
                    <nciodm:PreferredTerm>Augmented Vector Left</nciodm:PreferredTerm>
                </EnumeratedItem>
                <EnumeratedItem CodedValue="LEAD aVR" nciodm:ExtCodeID="C90362">
                    <nciodm:CDISCDefinition>An augmented unipolar electrocardiogram limb lead in which the positive (white) electrode is situated on the right thoracic limb and the negative electrode is a combination of the left thoracic limb (black) electrode and the left pelvic limb (red) electrode. Measures the electrical activity of the electrode on the right thoracic limb. (NCI)</nciodm:CDISCDefinition>
                    <nciodm:PreferredTerm>Augmented Vector Right</nciodm:PreferredTerm>
                </EnumeratedItem>
                <EnumeratedItem CodedValue="LEAD CM5" nciodm:ExtCodeID="C90404">
                    <nciodm:CDISCDefinition>A bipolar EKG lead with the right thoracic limb electrode placed on the manubrium and left thoracic limb electrode placed at the surface marking of the V5 position (just above the 5th interspace in the anterior axillary line). The left pelvic limb lead acts as a neutral and may be placed anywhere. The C refers to 'clavicle' where it is often placed. (NCI)</nciodm:CDISCDefinition>
                    <nciodm:PreferredTerm>Lead Site CM5</nciodm:PreferredTerm>
                </EnumeratedItem>
                <EnumeratedItem CodedValue="LEAD CV5RL" nciodm:ExtCodeID="C90405">
                    <nciodm:CDISCDefinition>A unipolar chest lead used mostly in large animals. Placed on the sixth ICS on the right side of the thorax along a line parallel to the level of the point of the humeralradial joint.</nciodm:CDISCDefinition>
                    <nciodm:PreferredTerm>Lead Site CV5RL</nciodm:PreferredTerm>
                </EnumeratedItem>
                <EnumeratedItem CodedValue="LEAD CV6LL" nciodm:ExtCodeID="C90406">
                    <nciodm:CDISCDefinition>V1 electrode (+) placed in the 6th intercostal space on the left side of the thorax along a line parallel to the level of the point of the humeralradial joint.</nciodm:CDISCDefinition>
                    <nciodm:PreferredTerm>Lead Site CV6LL</nciodm:PreferredTerm>
                </EnumeratedItem>
                <EnumeratedItem CodedValue="LEAD CV6LU" nciodm:ExtCodeID="C90407">
                    <nciodm:CDISCDefinition>V2 electrode (+) placed in the 6th intercostal space on the left side of the thorax along a line parallel to the level of the point of the shoulder. (NCI)</nciodm:CDISCDefinition>
                    <nciodm:PreferredTerm>Lead Site CV6LU</nciodm:PreferredTerm>
                </EnumeratedItem>
                <EnumeratedItem CodedValue="LEAD I" nciodm:ExtCodeID="C90408">
                    <nciodm:CDISCDefinition>A bipolar electrocardiogram limb lead which records the voltage between the negative electrode on the right thoracic limb and the positive electrode on the left thoracic limb. (NCI)</nciodm:CDISCDefinition>
                    <nciodm:PreferredTerm>Lead Site I</nciodm:PreferredTerm>
                </EnumeratedItem>
                <EnumeratedItem CodedValue="LEAD II" nciodm:ExtCodeID="C90409">
                    <nciodm:CDISCDefinition>A bipolar electrocardiogram limb lead which records the voltage between the negative electrode on the right thoracic limb and the positive electrode on the left pelvic limb. (NCI)</nciodm:CDISCDefinition>
                    <nciodm:PreferredTerm>Lead Site II</nciodm:PreferredTerm>
                </EnumeratedItem>
                <EnumeratedItem CodedValue="LEAD III" nciodm:ExtCodeID="C90410">
                    <nciodm:CDISCDefinition>A bipolar electrocardiogram limb lead which records the voltage between the negative electrode on the left thoracic limb and the positive electrode on the left pelvic limb. (NCI)</nciodm:CDISCDefinition>
                    <nciodm:PreferredTerm>Lead Site III</nciodm:PreferredTerm>
                </EnumeratedItem>
                <EnumeratedItem CodedValue="LEAD rV2" nciodm:ExtCodeID="C90411">
                    <nciodm:CDISCDefinition>A unipolar precordial lead placed at the second intercostal space to the left of the sternum. (NCI)</nciodm:CDISCDefinition>
                    <nciodm:PreferredTerm>Lead Site rV2</nciodm:PreferredTerm>
                </EnumeratedItem>
                <EnumeratedItem CodedValue="LEAD V1" nciodm:ExtCodeID="C90412">
                    <nciodm:CDISCSynonym>Lead C1</nciodm:CDISCSynonym>
                    <nciodm:CDISCDefinition>A unipolar electrocardiogram lead site; the electrode is placed at the fourth intercostal space on the anterior chest wall (between ribs 4 and 5) to the right of the sternal border. In small animals, it is placed at the right fifth intercostal space near the sternum. (NCI)</nciodm:CDISCDefinition>
                    <nciodm:PreferredTerm>Lead Site V1</nciodm:PreferredTerm>
                </EnumeratedItem>
                <EnumeratedItem CodedValue="LEAD V10" nciodm:ExtCodeID="C90413">
                    <nciodm:CDISCDefinition>A unipolar chest lead at which the electrode is placed over the dorsal spinous process of 7th thoracic vertebra. (NCI)</nciodm:CDISCDefinition>
                    <nciodm:PreferredTerm>Lead Site V10</nciodm:PreferredTerm>
                </EnumeratedItem>
                <EnumeratedItem CodedValue="LEAD V2" nciodm:ExtCodeID="C90414">
                    <nciodm:CDISCSynonym>Lead C2</nciodm:CDISCSynonym>
                    <nciodm:CDISCDefinition>A unipolar electrocardiogram lead site; the electrode is placed on the anterior chest wall at the fourth intercostal space (between ribs 4 and 5) to the left of the sternal border. In small animals it corresponds to V2-V3 where it is placed at the 6th left intercostal space near the sternum. In large animals it is placed over the 6th rib at the level of the costochondral junction on the left side of the thorax.</nciodm:CDISCDefinition>
                    <nciodm:PreferredTerm>Lead Site V2</nciodm:PreferredTerm>
                </EnumeratedItem>
                <EnumeratedItem CodedValue="LEAD V3" nciodm:ExtCodeID="C90415">
                    <nciodm:CDISCSynonym>Lead C3</nciodm:CDISCSynonym>
                    <nciodm:CDISCDefinition>A unipolar electrocardiogram lead site; the electrode is placed on the anterior chest wall midway between leads V2 and V4. In large and small animals, it is placed over the dorsal spinous process of the 7th thoracic vertebra. (NCI)</nciodm:CDISCDefinition>
                    <nciodm:PreferredTerm>Lead Site V3</nciodm:PreferredTerm>
                </EnumeratedItem>
                <EnumeratedItem CodedValue="LEAD V4" nciodm:ExtCodeID="C90416">
                    <nciodm:CDISCSynonym>Lead C4</nciodm:CDISCSynonym>
                    <nciodm:CDISCDefinition>A unipolar electrocardiogram lead site; the electrode is placed at the fifth intercostal space on the anterior chest wall (between ribs 5 and 6) at the left midclavicular line. In small animals it corresponds to V4-V6 where it is placed at the 6th left intercostal space near the costochondral junction. In large animals it is placed over the 6th rib at the level of a horizontal line drawn through the scapulohumeral articulation on the left side of the thorax. (NCI)</nciodm:CDISCDefinition>
                    <nciodm:PreferredTerm>Lead Site V4</nciodm:PreferredTerm>
                </EnumeratedItem>
                <EnumeratedItem CodedValue="LEAD V5" nciodm:ExtCodeID="C90417">
                    <nciodm:CDISCSynonym>Lead C5</nciodm:CDISCSynonym>
                    <nciodm:CDISCDefinition>A unipolar electrocardiogram lead site; the electrode is placed on the anterior chest wall level with lead V4 at the left anterior axillary line. In large animals it is placed on the sixth ICS on the right side of the thorax along a line parallel to the level of the point of the shoulder corresponding to the electrical center of the heart (central terminal). (NCI)</nciodm:CDISCDefinition>
                    <nciodm:PreferredTerm>Lead Site V5</nciodm:PreferredTerm>
                </EnumeratedItem>
                <EnumeratedItem CodedValue="LEAD V6" nciodm:ExtCodeID="C90418">
                    <nciodm:CDISCSynonym>Lead C6</nciodm:CDISCSynonym>
                    <nciodm:CDISCDefinition>A unipolar electrocardiogram lead site at which the electrode is placed on the anterior chest wall level with lead V5 at the left midaxillary line .</nciodm:CDISCDefinition>
                    <nciodm:PreferredTerm>Lead Site V6</nciodm:PreferredTerm>
                </EnumeratedItem>
                <EnumeratedItem CodedValue="SML" nciodm:ExtCodeID="C117760">
                    <nciodm:CDISCSynonym>Global Median Beat</nciodm:CDISCSynonym>
                    <nciodm:CDISCSynonym>Superimposition of Multiple Leads</nciodm:CDISCSynonym>
                    <nciodm:CDISCDefinition>Measurement methodology using multiple leads for the determination of an ECG parameter. This is often visually represented as a superimposition of the median beats from multiple leads.</nciodm:CDISCDefinition>
                    <nciodm:PreferredTerm>Superimposition of Multiple Leads</nciodm:PreferredTerm>
                </EnumeratedItem>
                <nciodm:CDISCSubmissionValue>EGLEAD</nciodm:CDISCSubmissionValue>
                <nciodm:CDISCSynonym>ECG Lead</nciodm:CDISCSynonym>
                <nciodm:PreferredTerm>CDISC SDTM Electrocardiogram Lead Terminology</nciodm:PreferredTerm>
            </CodeList>
            
