<CodeList xmlns="http://www.cdisc.org/ns/odm/v1.3" xmlns:nciodm="http://ncicb.nci.nih.gov/xml/odm/EVS/CDISC" xmlns:xs="http://www.w3.org/2001/XMLSchema-instance" OID="CL.C78734.SPECTYPE" Name="Specimen Type" DataType="text" nciodm:ExtCodeID="C78734" nciodm:CodeListExtensible="Yes">
                <Description>
                    <TranslatedText xml:lang="en">The name and description of a biological specimen.</TranslatedText>
                </Description>
                <EnumeratedItem CodedValue="ADIPOSE TISSUE" nciodm:ExtCodeID="C12472">
                    <nciodm:CDISCSynonym>Body Fat</nciodm:CDISCSynonym>
                    <nciodm:CDISCSynonym>Fat Tissue</nciodm:CDISCSynonym>
                    <nciodm:CDISCDefinition>Connective tissue consisting primarily of adipocytes (fat cells) and supporting structural matrix.</nciodm:CDISCDefinition>
                    <nciodm:PreferredTerm>Adipose Tissue</nciodm:PreferredTerm>
                </EnumeratedItem>
                <EnumeratedItem CodedValue="AMNIOTIC FLUID" nciodm:ExtCodeID="C13188">
                    <nciodm:CDISCSynonym>Aqua Amnii</nciodm:CDISCSynonym>
                    <nciodm:CDISCDefinition>The fluid within the amniotic cavity which surrounds and protects the developing embryo. (NCI)</nciodm:CDISCDefinition>
                    <nciodm:PreferredTerm>Amniotic Fluid</nciodm:PreferredTerm>
                </EnumeratedItem>
                <EnumeratedItem CodedValue="AQUEOUS HUMOR" nciodm:ExtCodeID="C13190">
                    <nciodm:CDISCSynonym>Aqueous Humour</nciodm:CDISCSynonym>
                    <nciodm:CDISCDefinition>The watery fluid which is present in the anterior and posterior chambers of the eye. (NCI)</nciodm:CDISCDefinition>
                    <nciodm:PreferredTerm>Aqueous Humor</nciodm:PreferredTerm>
                </EnumeratedItem>
                <EnumeratedItem CodedValue="ARTERIAL BLOOD" nciodm:ExtCodeID="C78729">
                    <nciodm:CDISCDefinition>Oxygenated blood which is transported with nutrients to body tissues through the arterial system. The exception is blood within the pulmonary artery which carries deoxygenated blood to the lungs. (NCI)</nciodm:CDISCDefinition>
                    <nciodm:PreferredTerm>Arterial Blood</nciodm:PreferredTerm>
                </EnumeratedItem>
                <EnumeratedItem CodedValue="ARTERIAL CORD BLOOD" nciodm:ExtCodeID="C120838">
                    <nciodm:CDISCDefinition>Blood present in the umbilical arteries at the time of delivery.</nciodm:CDISCDefinition>
                    <nciodm:PreferredTerm>Arterial Cord Blood</nciodm:PreferredTerm>
                </EnumeratedItem>
                <EnumeratedItem CodedValue="ATHEROSCLEROTIC PLAQUE" nciodm:ExtCodeID="C78739">
                    <nciodm:CDISCDefinition>Fatty tissue which is deposited in the inner lining of the arterial wall. (NCI)</nciodm:CDISCDefinition>
                    <nciodm:PreferredTerm>Atherosclerotic Plaque</nciodm:PreferredTerm>
                </EnumeratedItem>
                <EnumeratedItem CodedValue="BILE" nciodm:ExtCodeID="C13192">
                    <nciodm:CDISCDefinition>Fluid composed of waste products, bile acids, salts, cholesterol, and electrolytes. It is produced by the liver and may be stored in the gallbladder (if present).</nciodm:CDISCDefinition>
                    <nciodm:PreferredTerm>Bile</nciodm:PreferredTerm>
                </EnumeratedItem>
                <EnumeratedItem CodedValue="BLOOD" nciodm:ExtCodeID="C12434">
                    <nciodm:CDISCSynonym>Peripheral Blood</nciodm:CDISCSynonym>
                    <nciodm:CDISCSynonym>Whole Blood</nciodm:CDISCSynonym>
                    <nciodm:CDISCDefinition>A liquid tissue with the primary function of transporting oxygen and carbon dioxide. It supplies the tissues with nutrients, removes waste products, and contains various components of the immune system defending the body against infection.</nciodm:CDISCDefinition>
                    <nciodm:PreferredTerm>Blood</nciodm:PreferredTerm>
                </EnumeratedItem>
                <EnumeratedItem CodedValue="BONE" nciodm:ExtCodeID="C12366">
                    <nciodm:CDISCDefinition>Calcified connective tissue that forms the skeletal components of the body. (NCI)</nciodm:CDISCDefinition>
                    <nciodm:PreferredTerm>Bone</nciodm:PreferredTerm>
                </EnumeratedItem>
                <EnumeratedItem CodedValue="BONE MARROW" nciodm:ExtCodeID="C12431">
                    <nciodm:CDISCDefinition>The tissue occupying the spaces of some bones. It consists of blood vessel sinuses and a network of hematopoietic cells.</nciodm:CDISCDefinition>
                    <nciodm:PreferredTerm>Bone Marrow</nciodm:PreferredTerm>
                </EnumeratedItem>
                <EnumeratedItem CodedValue="BREAST MILK" nciodm:ExtCodeID="C13257">
                    <nciodm:CDISCDefinition>A liquid produced by the mammary gland.</nciodm:CDISCDefinition>
                    <nciodm:PreferredTerm>Breast Milk</nciodm:PreferredTerm>
                </EnumeratedItem>
                <EnumeratedItem CodedValue="BUFFY COAT" nciodm:ExtCodeID="C84507">
                    <nciodm:CDISCDefinition>The middle fraction of an anticoagulated blood specimen following separation by centrifugation. It contains most of the white blood cells and platelets.</nciodm:CDISCDefinition>
                    <nciodm:PreferredTerm>Buffy Coat</nciodm:PreferredTerm>
                </EnumeratedItem>
                <EnumeratedItem CodedValue="CALCULUS" nciodm:ExtCodeID="C35708">
                    <nciodm:CDISCDefinition>A concretion of material in the body, usually composed of mineral salts. Representative examples include gallbladder stones, kidney stones, and salivary gland stones.</nciodm:CDISCDefinition>
                    <nciodm:PreferredTerm>Stone</nciodm:PreferredTerm>
                </EnumeratedItem>
                <EnumeratedItem CodedValue="CAPILLARY BLOOD" nciodm:ExtCodeID="C112235">
                    <nciodm:CDISCDefinition>A mixture of arterial blood, venous blood and interstitial fluid, which is found in the capillaries.</nciodm:CDISCDefinition>
                    <nciodm:PreferredTerm>Capillary Blood</nciodm:PreferredTerm>
                </EnumeratedItem>
                <EnumeratedItem CodedValue="CAPILLARY PLASMA" nciodm:ExtCodeID="C132461">
                    <nciodm:CDISCDefinition>A plasma sample that is prepared from capillary blood.</nciodm:CDISCDefinition>
                    <nciodm:PreferredTerm>Capillary Plasma</nciodm:PreferredTerm>
                </EnumeratedItem>
                <EnumeratedItem CodedValue="CARDIAC MUSCLE TISSUE" nciodm:ExtCodeID="C12371">
                    <nciodm:CDISCSynonym>Myocardium</nciodm:CDISCSynonym>
                    <nciodm:CDISCDefinition>The striated muscle tissue of the heart enveloped by the epicardium and the endocardium. (NCI)</nciodm:CDISCDefinition>
                    <nciodm:PreferredTerm>Myocardium</nciodm:PreferredTerm>
                </EnumeratedItem>
                <EnumeratedItem CodedValue="CEREBROSPINAL FLUID" nciodm:ExtCodeID="C12692">
                    <nciodm:CDISCSynonym>CSF</nciodm:CDISCSynonym>
                    <nciodm:CDISCDefinition>The fluid that is contained within the brain ventricles, the subarachnoid space and the central canal of the spinal cord. (NCI)</nciodm:CDISCDefinition>
                    <nciodm:PreferredTerm>Cerebrospinal Fluid</nciodm:PreferredTerm>
                </EnumeratedItem>
                <EnumeratedItem CodedValue="CERUMEN" nciodm:ExtCodeID="C32293">
                    <nciodm:CDISCDefinition>A wax secreted by glands in the ear canal.</nciodm:CDISCDefinition>
                    <nciodm:PreferredTerm>Cerumen</nciodm:PreferredTerm>
                </EnumeratedItem>
                <EnumeratedItem CodedValue="CIRCULATING TUMOR CELL" nciodm:ExtCodeID="C63797">
                    <nciodm:CDISCSynonym>CTC</nciodm:CDISCSynonym>
                    <nciodm:CDISCDefinition>A metastatic cancer cell found in the peripheral blood. (NCI)</nciodm:CDISCDefinition>
                    <nciodm:PreferredTerm>Circulating Tumor Cell</nciodm:PreferredTerm>
                </EnumeratedItem>
                <EnumeratedItem CodedValue="COLOSTRUM" nciodm:ExtCodeID="C32348">
                    <nciodm:CDISCDefinition>A thick, protein-rich substance secreted by the breasts during the second half of pregnancy and for a few days after birth before the breast milk comes in.</nciodm:CDISCDefinition>
                    <nciodm:PreferredTerm>Human Colostrum</nciodm:PreferredTerm>
                </EnumeratedItem>
                <EnumeratedItem CodedValue="CORD BLOOD" nciodm:ExtCodeID="C13300">
                    <nciodm:CDISCSynonym>Umbilical Cord Blood</nciodm:CDISCSynonym>
                    <nciodm:CDISCDefinition>Blood present in the umbilical vessels at the time of delivery.</nciodm:CDISCDefinition>
                    <nciodm:PreferredTerm>Umbilical Cord Blood</nciodm:PreferredTerm>
                </EnumeratedItem>
                <EnumeratedItem CodedValue="CORD SERUM" nciodm:ExtCodeID="C119550">
                    <nciodm:CDISCDefinition>The clear portion of the blood that remains after the removal of the blood cells and the clotting proteins from the cord blood of a newborn baby.</nciodm:CDISCDefinition>
                    <nciodm:PreferredTerm>Umbilical Cord Serum</nciodm:PreferredTerm>
                </EnumeratedItem>
                <EnumeratedItem CodedValue="DERMAL TISSUE" nciodm:ExtCodeID="C12701">
                    <nciodm:CDISCDefinition>The cells and connective tissue from the inner layer of the two main layers of the skin. The dermis has connective tissue, blood vessels, oil and sweat glands, nerves, hair follicles, and other structures. It is made up of a thin upper layer called the papillary dermis, and a thick lower layer called the reticular dermis.</nciodm:CDISCDefinition>
                    <nciodm:PreferredTerm>Dermis</nciodm:PreferredTerm>
                </EnumeratedItem>
                <EnumeratedItem CodedValue="DIALYSIS FLUID" nciodm:ExtCodeID="C106515">
                    <nciodm:CDISCSynonym>Dialysate</nciodm:CDISCSynonym>
                    <nciodm:CDISCDefinition>The fluid which runs through a dialysis machine and captures, for discard or analysis, the excess water and waste from the blood stream through diffusion and ultrafiltration. (NCI)</nciodm:CDISCDefinition>
                    <nciodm:PreferredTerm>Dialysis Fluid</nciodm:PreferredTerm>
                </EnumeratedItem>
                <EnumeratedItem CodedValue="EMESIS" nciodm:ExtCodeID="C77666">
                    <nciodm:CDISCSynonym>Emesis</nciodm:CDISCSynonym>
                    <nciodm:CDISCSynonym>Vomitus</nciodm:CDISCSynonym>
                    <nciodm:CDISCDefinition>Partially digested gastric contents that are returned to the mouth or beyond via the vomit reflex present in some species.</nciodm:CDISCDefinition>
                    <nciodm:PreferredTerm>Vomitus</nciodm:PreferredTerm>
                </EnumeratedItem>
                <EnumeratedItem CodedValue="EPIDERMAL TISSUE" nciodm:ExtCodeID="C12708">
                    <nciodm:CDISCDefinition>The cells and connective tissue from the epithelial portion of the skin (cutis). It consists of the following layers: stratum corneum (horny layer), stratum granulosum (granular layer), stratum spinosum (prickle cell layer), and stratum basale (basal cell layer).</nciodm:CDISCDefinition>
                    <nciodm:PreferredTerm>Epidermis</nciodm:PreferredTerm>
                </EnumeratedItem>
                <EnumeratedItem CodedValue="EPITHELIAL CELL" nciodm:ExtCodeID="C12578">
                    <nciodm:CDISCDefinition>Any of the cells of the epithelium, which covers the body and lines its cavities and glands.</nciodm:CDISCDefinition>
                    <nciodm:PreferredTerm>Epithelial Cell</nciodm:PreferredTerm>
                </EnumeratedItem>
                <EnumeratedItem CodedValue="ERYTHROCYTES" nciodm:ExtCodeID="C12521">
                    <nciodm:CDISCSynonym>RBC</nciodm:CDISCSynonym>
                    <nciodm:CDISCSynonym>Red Blood Cells</nciodm:CDISCSynonym>
                    <nciodm:CDISCDefinition>Cell specialized for oxygen transport, having a high concentration of hemoglobin in the cytoplasm and little else; biconcave, anucleate discs, 7nm diameter in mammals.</nciodm:CDISCDefinition>
                    <nciodm:PreferredTerm>Erythrocyte</nciodm:PreferredTerm>
                </EnumeratedItem>
                <EnumeratedItem CodedValue="EXHALED BREATH CONDENSATE" nciodm:ExtCodeID="C126053">
                    <nciodm:CDISCDefinition>Expired air that has been condensed.</nciodm:CDISCDefinition>
                    <nciodm:PreferredTerm>Exhaled Breath Condensate</nciodm:PreferredTerm>
                </EnumeratedItem>
                <EnumeratedItem CodedValue="EXPIRED AIR" nciodm:ExtCodeID="C78741">
                    <nciodm:CDISCSynonym>Expired Breath</nciodm:CDISCSynonym>
                    <nciodm:CDISCDefinition>The air that moves out of the chest during expiration. It contains a higher percentage of carbon dioxide and a lower percentage of oxygen compared to the inhaled air. (NCI)</nciodm:CDISCDefinition>
                    <nciodm:PreferredTerm>Expired Air</nciodm:PreferredTerm>
                </EnumeratedItem>
                <EnumeratedItem CodedValue="EXUDATE" nciodm:ExtCodeID="C13233">
                    <nciodm:CDISCDefinition>Fluid, cells or cellular debris that escapes from the blood vessels and accumulates in nearby tissues. It is the result of inflammation and is rich in proteins.</nciodm:CDISCDefinition>
                    <nciodm:PreferredTerm>Exudate</nciodm:PreferredTerm>
                </EnumeratedItem>
                <EnumeratedItem CodedValue="FLUID" nciodm:ExtCodeID="C13236">
                    <nciodm:CDISCDefinition>Liquid substances produced by the body.</nciodm:CDISCDefinition>
                    <nciodm:PreferredTerm>Body Fluid or Substance</nciodm:PreferredTerm>
                </EnumeratedItem>
                <EnumeratedItem CodedValue="GASTRIC CONTENTS" nciodm:ExtCodeID="C77614">
                    <nciodm:CDISCSynonym>Stomach Contents</nciodm:CDISCSynonym>
                    <nciodm:CDISCDefinition>The contents of the stomach that may include undigested food mixed with juices secreted by the gastric mucosal glands. (NCI)</nciodm:CDISCDefinition>
                    <nciodm:PreferredTerm>Gastric Content</nciodm:PreferredTerm>
                </EnumeratedItem>
                <EnumeratedItem CodedValue="HAIR" nciodm:ExtCodeID="C32705">
                    <nciodm:CDISCSynonym>Hair</nciodm:CDISCSynonym>
                    <nciodm:CDISCDefinition>The filamentous outgrowth of the epidermis. (NCI)</nciodm:CDISCDefinition>
                    <nciodm:PreferredTerm>Hair</nciodm:PreferredTerm>
                </EnumeratedItem>
                <EnumeratedItem CodedValue="HAIR FOLLICLE" nciodm:ExtCodeID="C13317">
                    <nciodm:CDISCDefinition>A tube-like invagination of the epidermis from which the hair shaft develops and into which the sebaceous glands open; the follicle is lined by a cellular inner and outer root sheath of epidermal origin and is invested with a fibrous sheath derived from the dermis. (NCI)</nciodm:CDISCDefinition>
                    <nciodm:PreferredTerm>Hair Follicle</nciodm:PreferredTerm>
                </EnumeratedItem>
                <EnumeratedItem CodedValue="INFRANATANT, PLASMA" nciodm:ExtCodeID="C106554">
                    <nciodm:CDISCDefinition>The liquid, solid or semi-solid lying below a liquid residue, which is separated by crystallization, precipitation or centrifugation of a plasma sample. (NCI)</nciodm:CDISCDefinition>
                    <nciodm:PreferredTerm>Plasma Infranatant</nciodm:PreferredTerm>
                </EnumeratedItem>
                <EnumeratedItem CodedValue="INFRANATANT, PLEURAL FLUID" nciodm:ExtCodeID="C106558">
                    <nciodm:CDISCDefinition>The liquid, solid or semi-solid lying below a liquid residue, which is separated by crystallization, precipitation or centrifugation of a pleural fluid sample. (NCI)</nciodm:CDISCDefinition>
                    <nciodm:PreferredTerm>Pleural Fluid Infranatant</nciodm:PreferredTerm>
                </EnumeratedItem>
                <EnumeratedItem CodedValue="INFRANATANT, SERUM" nciodm:ExtCodeID="C106565">
                    <nciodm:CDISCDefinition>The liquid, solid or semi-solid lying below a liquid residue, which is separated by crystallization, precipitation or centrifugation of a serum sample. (NCI)</nciodm:CDISCDefinition>
                    <nciodm:PreferredTerm>Serum Infranatant</nciodm:PreferredTerm>
                </EnumeratedItem>
                <EnumeratedItem CodedValue="INTERSTITIAL FLUID" nciodm:ExtCodeID="C120839">
                    <nciodm:CDISCDefinition>The extracellular fluid component found in the spaces between tissues. This excludes plasma and transcellular fluid.</nciodm:CDISCDefinition>
                    <nciodm:PreferredTerm>Interstitial Fluid</nciodm:PreferredTerm>
                </EnumeratedItem>
                <EnumeratedItem CodedValue="ISOLATE" nciodm:ExtCodeID="C53471">
                    <nciodm:CDISCSynonym>Microbial Isolate</nciodm:CDISCSynonym>
                    <nciodm:CDISCDefinition>A specific individual microbe and its genetically identical progeny separated on a single occasion from a sample taken from a host or culture system.</nciodm:CDISCDefinition>
                    <nciodm:PreferredTerm>Isolate</nciodm:PreferredTerm>
                </EnumeratedItem>
                <EnumeratedItem CodedValue="KERATINOCYTE" nciodm:ExtCodeID="C12589">
                    <nciodm:CDISCDefinition>The keratin-producing cell of the epidermis that forms in the deep basal layer of the stratified epithelium.</nciodm:CDISCDefinition>
                    <nciodm:PreferredTerm>Keratinocyte</nciodm:PreferredTerm>
                </EnumeratedItem>
                <EnumeratedItem CodedValue="LAVAGE FLUID" nciodm:ExtCodeID="C103411">
                    <nciodm:CDISCDefinition>Fluid introduced into, and collected from, a body cavity by lavage procedure. (NCI)</nciodm:CDISCDefinition>
                    <nciodm:PreferredTerm>Lavage Fluid</nciodm:PreferredTerm>
                </EnumeratedItem>
                <EnumeratedItem CodedValue="LOCHIA" nciodm:ExtCodeID="C78742">
                    <nciodm:CDISCDefinition>Vaginal discharge occurring during the post-partum period. It consists of a mixture of blood, mucus, and placental remnants. (NCI)</nciodm:CDISCDefinition>
                    <nciodm:PreferredTerm>Lochia</nciodm:PreferredTerm>
                </EnumeratedItem>
                <EnumeratedItem CodedValue="LUNG SURFACTANT" nciodm:ExtCodeID="C13273">
                    <nciodm:CDISCSynonym>Surfactant</nciodm:CDISCSynonym>
                    <nciodm:CDISCDefinition>Pulmonary surfactant lines the lung epithelium and lowers surface tension to prevent collapse at end-expiration. Deficiency of pulmonary surfactant results in respiratory distress syndrome (RDS) in premature infants. Lung surfactant is synthesized in alveolar type II cells, stored in lamellar bodies and secreted via exocytosis. (NCI)</nciodm:CDISCDefinition>
                    <nciodm:PreferredTerm>Lung Surfactant</nciodm:PreferredTerm>
                </EnumeratedItem>
                <EnumeratedItem CodedValue="LYMPH" nciodm:ExtCodeID="C13252">
                    <nciodm:CDISCDefinition>A clear, transparent, sometimes faintly yellow and slightly opalescent fluid that is collected from the tissues throughout the body, flows in the lymphatic vessels (through the lymph nodes), and is eventually added to the venous blood circulation. Lymph consists of a clear liquid portion, varying numbers of white blood cells (chiefly lymphocytes), and a few red blood cells. (NCI)</nciodm:CDISCDefinition>
                    <nciodm:PreferredTerm>Lymph</nciodm:PreferredTerm>
                </EnumeratedItem>
                <EnumeratedItem CodedValue="LYSATE" nciodm:ExtCodeID="C62004">
                    <nciodm:CDISCDefinition>The cellular debris and fluid produced by lysis of cells.</nciodm:CDISCDefinition>
                    <nciodm:PreferredTerm>Lysate</nciodm:PreferredTerm>
                </EnumeratedItem>
                <EnumeratedItem CodedValue="MECONIUM" nciodm:ExtCodeID="C78743">
                    <nciodm:CDISCDefinition>The newborn's first intestinal discharge. It is a dark-green, thick substance composed of mucus, intestinal secretions, hair, and intestinal mucosa cells. (NCI)</nciodm:CDISCDefinition>
                    <nciodm:PreferredTerm>Meconium</nciodm:PreferredTerm>
                </EnumeratedItem>
                <EnumeratedItem CodedValue="MENSTRUAL BLOOD" nciodm:ExtCodeID="C78740">
                    <nciodm:CDISCDefinition>The discharged blood from the uterus during the reproductive years. The discharge occurs approximately once a month. (NCI)</nciodm:CDISCDefinition>
                    <nciodm:PreferredTerm>Menstrual Blood</nciodm:PreferredTerm>
                </EnumeratedItem>
                <EnumeratedItem CodedValue="MONOCYTE" nciodm:ExtCodeID="C12547">
                    <nciodm:CDISCDefinition>A large, phagocytic mononuclear leukocyte produced in the vertebrate bone marrow and released into the blood; containing a large, oval or somewhat indented nucleus surrounded by voluminous cytoplasm and numerous organelles.</nciodm:CDISCDefinition>
                    <nciodm:PreferredTerm>Monocyte</nciodm:PreferredTerm>
                </EnumeratedItem>
                <EnumeratedItem CodedValue="MUCUS" nciodm:ExtCodeID="C13259">
                    <nciodm:CDISCDefinition>The thick fluid secreted by the mucus glands in the aerodigestive tract and the vagina. (NCI)</nciodm:CDISCDefinition>
                    <nciodm:PreferredTerm>Mucus</nciodm:PreferredTerm>
                </EnumeratedItem>
                <EnumeratedItem CodedValue="NAIL" nciodm:ExtCodeID="C33156">
                    <nciodm:CDISCSynonym>Nail</nciodm:CDISCSynonym>
                    <nciodm:CDISCDefinition>The cutaneous plate on the dorsal surface of the distal end of a finger or toe. (NCI)</nciodm:CDISCDefinition>
                    <nciodm:PreferredTerm>Nail</nciodm:PreferredTerm>
                </EnumeratedItem>
                <EnumeratedItem CodedValue="PERIPHERAL BLOOD MONONUCLEAR CELL" nciodm:ExtCodeID="C12954">
                    <nciodm:CDISCSynonym>PBMC</nciodm:CDISCSynonym>
                    <nciodm:CDISCDefinition>A peripheral blood cell with a single nucleus, for example lymphocytes and monocytes.</nciodm:CDISCDefinition>
                    <nciodm:PreferredTerm>Peripheral Blood Mononuclear Cell</nciodm:PreferredTerm>
                </EnumeratedItem>
                <EnumeratedItem CodedValue="PERSPIRATION" nciodm:ExtCodeID="C13280">
                    <nciodm:CDISCSynonym>Sweat</nciodm:CDISCSynonym>
                    <nciodm:CDISCDefinition>The liquid secreted by the sweat glands. (NCI)</nciodm:CDISCDefinition>
                    <nciodm:PreferredTerm>Sweat</nciodm:PreferredTerm>
                </EnumeratedItem>
                <EnumeratedItem CodedValue="PLASMA" nciodm:ExtCodeID="C13356">
                    <nciodm:CDISCDefinition>The fluid (acellular) portion of the circulating blood with retained clotting components.</nciodm:CDISCDefinition>
                    <nciodm:PreferredTerm>Plasma</nciodm:PreferredTerm>
                </EnumeratedItem>
                <EnumeratedItem CodedValue="PLATELET" nciodm:ExtCodeID="C12520">
                    <nciodm:CDISCSynonym>Thrombocyte</nciodm:CDISCSynonym>
                    <nciodm:CDISCDefinition>An irregular, disc-shaped structure in the blood that assists in blood clotting. Platelets are not blood cells, they are fragments of large bone marrow cells called megakaryocytes. (NCI)</nciodm:CDISCDefinition>
                    <nciodm:PreferredTerm>Platelet</nciodm:PreferredTerm>
                </EnumeratedItem>
                <EnumeratedItem CodedValue="PLATELET POOR PLASMA" nciodm:ExtCodeID="C106556">
                    <nciodm:CDISCSynonym>PPP</nciodm:CDISCSynonym>
                    <nciodm:CDISCDefinition>A plasma sample that is prepared from whole blood, which has undergone a number of centrifugation steps to decrease the amount of platelets. (NCI)</nciodm:CDISCDefinition>
                    <nciodm:PreferredTerm>Platelet-poor Plasma</nciodm:PreferredTerm>
                </EnumeratedItem>
                <EnumeratedItem CodedValue="PLATELET RICH PLASMA" nciodm:ExtCodeID="C106557">
                    <nciodm:CDISCSynonym>PRP</nciodm:CDISCSynonym>
                    <nciodm:CDISCDefinition>A plasma sample that is prepared from whole blood, which has undergone a number of centrifugation steps to concentrate the amount of platelets. (NCI)</nciodm:CDISCDefinition>
                    <nciodm:PreferredTerm>Platelet-rich Plasma</nciodm:PreferredTerm>
                </EnumeratedItem>
                <EnumeratedItem CodedValue="PLEURAL FLUID" nciodm:ExtCodeID="C77613">
                    <nciodm:CDISCDefinition>The fluid that is abnormally collected in the pleural cavity. (NCI)</nciodm:CDISCDefinition>
                    <nciodm:PreferredTerm>Pleural Fluid</nciodm:PreferredTerm>
                </EnumeratedItem>
                <EnumeratedItem CodedValue="PROSTATIC FLUID" nciodm:ExtCodeID="C100896">
                    <nciodm:CDISCDefinition>A slightly alkaline, white fluid secreted from the prostate and is a constituent of semen.</nciodm:CDISCDefinition>
                    <nciodm:PreferredTerm>Prostatic Fluid</nciodm:PreferredTerm>
                </EnumeratedItem>
                <EnumeratedItem CodedValue="PUS" nciodm:ExtCodeID="C50718">
                    <nciodm:CDISCDefinition>A yellowish substance produced during bacterial inflammation. It contains necrotic cells and cells fighting the infection. (NCI)</nciodm:CDISCDefinition>
                    <nciodm:PreferredTerm>Pus</nciodm:PreferredTerm>
                </EnumeratedItem>
                <EnumeratedItem CodedValue="SALIVA" nciodm:ExtCodeID="C13275">
                    <nciodm:CDISCDefinition>A clear liquid secreted by the salivary glands.</nciodm:CDISCDefinition>
                    <nciodm:PreferredTerm>Saliva</nciodm:PreferredTerm>
                </EnumeratedItem>
                <EnumeratedItem CodedValue="SEBUM" nciodm:ExtCodeID="C13276">
                    <nciodm:CDISCDefinition>A thick, oily substance produced by the sebaceous glands located in the dermis. (NCI)</nciodm:CDISCDefinition>
                    <nciodm:PreferredTerm>Sebum</nciodm:PreferredTerm>
                </EnumeratedItem>
                <EnumeratedItem CodedValue="SEMEN" nciodm:ExtCodeID="C13277">
                    <nciodm:CDISCDefinition>The fluid containing the spermatozoa, secreted by the testes and accessory reproductive glands of the male.</nciodm:CDISCDefinition>
                    <nciodm:PreferredTerm>Semen</nciodm:PreferredTerm>
                </EnumeratedItem>
                <EnumeratedItem CodedValue="SEMINAL FLUID" nciodm:ExtCodeID="C33529">
                    <nciodm:CDISCDefinition>Part of the ejaculated fluid. It contains secretions from the seminal vesicles, Cowper gland, and prostate gland.</nciodm:CDISCDefinition>
                    <nciodm:PreferredTerm>Seminal Fluid</nciodm:PreferredTerm>
                </EnumeratedItem>
                <EnumeratedItem CodedValue="SERUM" nciodm:ExtCodeID="C13325">
                    <nciodm:CDISCSynonym>Sera</nciodm:CDISCSynonym>
                    <nciodm:CDISCDefinition>The clear portion of the blood that remains after the removal of the blood cells and the clotting proteins. (NCI)</nciodm:CDISCDefinition>
                    <nciodm:PreferredTerm>Serum</nciodm:PreferredTerm>
                </EnumeratedItem>
                <EnumeratedItem CodedValue="SERUM OR PLASMA" nciodm:ExtCodeID="C105706">
                    <nciodm:CDISCDefinition>The non-cellular portion of the circulating blood, with or without the clotting proteins present.</nciodm:CDISCDefinition>
                    <nciodm:PreferredTerm>Serum or Plasma</nciodm:PreferredTerm>
                </EnumeratedItem>
                <EnumeratedItem CodedValue="SKELETAL MUSCLE TISSUE" nciodm:ExtCodeID="C13050">
                    <nciodm:CDISCDefinition>Voluntary, striated muscle tissue predominantly associated with the skeleton.</nciodm:CDISCDefinition>
                    <nciodm:PreferredTerm>Skeletal Muscle Tissue</nciodm:PreferredTerm>
                </EnumeratedItem>
                <EnumeratedItem CodedValue="SKIN TISSUE" nciodm:ExtCodeID="C33563">
                    <nciodm:CDISCDefinition>Tissue composed of three layers, epidermis, dermis and subcutis which protect underlying muscles and organs.</nciodm:CDISCDefinition>
                    <nciodm:PreferredTerm>Skin Tissue</nciodm:PreferredTerm>
                </EnumeratedItem>
                <EnumeratedItem CodedValue="SMEGMA" nciodm:ExtCodeID="C33574">
                    <nciodm:CDISCDefinition>A white secretion of the sebaceous glands of the foreskin. (NCI)</nciodm:CDISCDefinition>
                    <nciodm:PreferredTerm>Smegma</nciodm:PreferredTerm>
                </EnumeratedItem>
                <EnumeratedItem CodedValue="SMOOTH MUSCLE TISSUE" nciodm:ExtCodeID="C12437">
                    <nciodm:CDISCDefinition>Primarily involuntary, non-striated muscle tissue of the internal organs and blood vessels.</nciodm:CDISCDefinition>
                    <nciodm:PreferredTerm>Smooth Muscle Tissue</nciodm:PreferredTerm>
                </EnumeratedItem>
                <EnumeratedItem CodedValue="SOFT TISSUE" nciodm:ExtCodeID="C12471">
                    <nciodm:CDISCSynonym>Soft Tissue</nciodm:CDISCSynonym>
                    <nciodm:CDISCDefinition>Refers to muscle, fat, fibrous tissue, blood vessels or other supporting tissue of the body.</nciodm:CDISCDefinition>
                    <nciodm:PreferredTerm>Soft Tissue</nciodm:PreferredTerm>
                </EnumeratedItem>
                <EnumeratedItem CodedValue="SPERMATOZOON" nciodm:ExtCodeID="C12602">
                    <nciodm:CDISCSynonym>Sperm Cell</nciodm:CDISCSynonym>
                    <nciodm:CDISCDefinition>The male reproductive cell that is formed in the testicle. A sperm consists of a head, a body, and a tail that provides propulsion.</nciodm:CDISCDefinition>
                    <nciodm:PreferredTerm>Spermatozoon</nciodm:PreferredTerm>
                </EnumeratedItem>
                <EnumeratedItem CodedValue="SPUTUM" nciodm:ExtCodeID="C13278">
                    <nciodm:CDISCDefinition>Material containing mucus, cellular debris, microorganisms and sometimes blood or pus. It is ejected through the mouth from the lungs, bronchi, and trachea. (NCI)</nciodm:CDISCDefinition>
                    <nciodm:PreferredTerm>Sputum</nciodm:PreferredTerm>
                </EnumeratedItem>
                <EnumeratedItem CodedValue="STOOL" nciodm:ExtCodeID="C13234">
                    <nciodm:CDISCSynonym>Feces</nciodm:CDISCSynonym>
                    <nciodm:CDISCDefinition>The material discharged from the bowel during defecation. It consists of undigested food, intestinal mucus, epithelial cells, and bacteria. (NCI)</nciodm:CDISCDefinition>
                    <nciodm:PreferredTerm>Feces</nciodm:PreferredTerm>
                </EnumeratedItem>
                <EnumeratedItem CodedValue="STRIATED MUSCLE TISSUE" nciodm:ExtCodeID="C12436">
                    <nciodm:CDISCDefinition>Striated muscles are appendicular and axial muscles typically connected at either or both ends to the bony skeleton of the body. Striated muscle fibers contain a highly organized, contractile cytoskeletal apparatus with a striated microscopic appearance; muscle contraction is typically under voluntary control. (NCI)</nciodm:CDISCDefinition>
                    <nciodm:PreferredTerm>Striated Muscle Tissue</nciodm:PreferredTerm>
                </EnumeratedItem>
                <EnumeratedItem CodedValue="SUPERNATANT, PLASMA" nciodm:ExtCodeID="C106555">
                    <nciodm:CDISCDefinition>The liquid lying above a liquid, solid or semi-solid residue, which is separated by crystallization, precipitation or centrifugation of a plasma sample. (NCI)</nciodm:CDISCDefinition>
                    <nciodm:PreferredTerm>Plasma Supernatant</nciodm:PreferredTerm>
                </EnumeratedItem>
                <EnumeratedItem CodedValue="SUPERNATANT, PLEURAL FLUID" nciodm:ExtCodeID="C106559">
                    <nciodm:CDISCDefinition>The liquid lying above a liquid, solid or semi-solid residue, which is separated by crystallization, precipitation or centrifugation of a pleural fluid sample. (NCI)</nciodm:CDISCDefinition>
                    <nciodm:PreferredTerm>Pleural Fluid Supernatant</nciodm:PreferredTerm>
                </EnumeratedItem>
                <EnumeratedItem CodedValue="SUPERNATANT, SERUM" nciodm:ExtCodeID="C106566">
                    <nciodm:CDISCDefinition>The liquid lying above a liquid, solid or semi-solid residue, which is separated by crystallization, precipitation or centrifugation of a serum sample. (NCI)</nciodm:CDISCDefinition>
                    <nciodm:PreferredTerm>Serum Supernatant</nciodm:PreferredTerm>
                </EnumeratedItem>
                <EnumeratedItem CodedValue="SYNOVIAL FLUID" nciodm:ExtCodeID="C33718">
                    <nciodm:CDISCSynonym>Synovia</nciodm:CDISCSynonym>
                    <nciodm:CDISCDefinition>The fluid within a joint capsule.</nciodm:CDISCDefinition>
                    <nciodm:PreferredTerm>Synovial Fluid</nciodm:PreferredTerm>
                </EnumeratedItem>
                <EnumeratedItem CodedValue="TISSUE" nciodm:ExtCodeID="C12801">
                    <nciodm:CDISCDefinition>An anatomical structure consisting of similarly specialized cells and intercellular matrix, aggregated according to genetically determined spatial relationships, performing a specific function. (NCI)</nciodm:CDISCDefinition>
                    <nciodm:PreferredTerm>Tissue</nciodm:PreferredTerm>
                </EnumeratedItem>
                <EnumeratedItem CodedValue="TRANSUDATE" nciodm:ExtCodeID="C78744">
                    <nciodm:CDISCDefinition>The fluid that passes through the wall of the veins and capillaries to the surrounding tissues because of increased intravascular pressure. It has low protein content. (NCI)</nciodm:CDISCDefinition>
                    <nciodm:PreferredTerm>Transudate</nciodm:PreferredTerm>
                </EnumeratedItem>
                <EnumeratedItem CodedValue="TUMOR TISSUE" nciodm:ExtCodeID="C18009">
                    <nciodm:CDISCDefinition>A tumor sample, or entire tumor that is removed for examination.</nciodm:CDISCDefinition>
                    <nciodm:PreferredTerm>Tumor Tissue</nciodm:PreferredTerm>
                </EnumeratedItem>
                <EnumeratedItem CodedValue="URINE" nciodm:ExtCodeID="C13283">
                    <nciodm:CDISCDefinition>The fluid produced by the kidneys.</nciodm:CDISCDefinition>
                    <nciodm:PreferredTerm>Urine</nciodm:PreferredTerm>
                </EnumeratedItem>
                <EnumeratedItem CodedValue="VENOUS BLOOD" nciodm:ExtCodeID="C78730">
                    <nciodm:CDISCDefinition>Deoxygenated blood containing urea and other waste products which is transported through the venous system to the heart and lungs. The exception is blood within the pulmonary vein which is oxygenated and travels from the lungs to the left atrium of the heart. (NCI)</nciodm:CDISCDefinition>
                    <nciodm:PreferredTerm>Venous Blood</nciodm:PreferredTerm>
                </EnumeratedItem>
                <EnumeratedItem CodedValue="VENOUS CORD BLOOD" nciodm:ExtCodeID="C120840">
                    <nciodm:CDISCDefinition>Blood present in the umbilical vein at the time of delivery.</nciodm:CDISCDefinition>
                    <nciodm:PreferredTerm>Venous Cord Blood</nciodm:PreferredTerm>
                </EnumeratedItem>
                <EnumeratedItem CodedValue="VENOUS PLASMA" nciodm:ExtCodeID="C132462">
                    <nciodm:CDISCDefinition>A plasma sample that is prepared from venous blood.</nciodm:CDISCDefinition>
                    <nciodm:PreferredTerm>Venous Plasma</nciodm:PreferredTerm>
                </EnumeratedItem>
                <EnumeratedItem CodedValue="VITREOUS HUMOR" nciodm:ExtCodeID="C13323">
                    <nciodm:CDISCDefinition>The clear colorless transparent jelly that fills the posterior chamber of the eyeball. (NCI)</nciodm:CDISCDefinition>
                    <nciodm:PreferredTerm>Vitreous Humor</nciodm:PreferredTerm>
                </EnumeratedItem>
                <EnumeratedItem CodedValue="WHITE MATTER TISSUE" nciodm:ExtCodeID="C33892">
                    <nciodm:CDISCDefinition>The nerve tissue forming the bulk of the deep parts of the brain and the superficial parts of the spinal cord. It is composed of nerve cell processes, i.e. extensions (axons), which connect various grey matter areas of the brain to each other and carry nerve impulses to and from the nerve cell bodies within the central nervous system (neurons). (NCI)</nciodm:CDISCDefinition>
                    <nciodm:PreferredTerm>White Matter</nciodm:PreferredTerm>
                </EnumeratedItem>
                <nciodm:CDISCSubmissionValue>SPECTYPE</nciodm:CDISCSubmissionValue>
                <nciodm:CDISCSynonym>Specimen Type</nciodm:CDISCSynonym>
                <nciodm:PreferredTerm>CDISC SDTM Specimen Type Terminology</nciodm:PreferredTerm>
            </CodeList>
            
