<CodeList xmlns="http://www.cdisc.org/ns/odm/v1.3" xmlns:nciodm="http://ncicb.nci.nih.gov/xml/odm/EVS/CDISC" xmlns:xs="http://www.w3.org/2001/XMLSchema-instance" OID="CL.C111344.FAQ TESTCD" Name="Functional Activities Questionnaire Test Code" DataType="text" nciodm:ExtCodeID="C111344" nciodm:CodeListExtensible="No">
                <Description>
                    <TranslatedText xml:lang="en">Functional Activities Questionnaire test code.</TranslatedText>
                </Description>
                <EnumeratedItem CodedValue="FAQ0101" nciodm:ExtCodeID="C111499">
                    <nciodm:CDISCSynonym>FAQ01-Write Checks/Pay Bills/Checkbook</nciodm:CDISCSynonym>
                    <nciodm:CDISCDefinition>Functional Activities Questionnaire - Writing checks, paying bills, balancing checkbook.</nciodm:CDISCDefinition>
                    <nciodm:PreferredTerm>FAQ - Write checks, Pay bills, Balance checkbook</nciodm:PreferredTerm>
                </EnumeratedItem>
                <EnumeratedItem CodedValue="FAQ0102" nciodm:ExtCodeID="C111500">
                    <nciodm:CDISCSynonym>FAQ01-Assembling</nciodm:CDISCSynonym>
                    <nciodm:CDISCDefinition>Functional Activities Questionnaire - Assembling tax records, business affairs, or papers.</nciodm:CDISCDefinition>
                    <nciodm:PreferredTerm>FAQ - Assemble</nciodm:PreferredTerm>
                </EnumeratedItem>
                <EnumeratedItem CodedValue="FAQ0103" nciodm:ExtCodeID="C111501">
                    <nciodm:CDISCSynonym>FAQ01-Shopping Alone</nciodm:CDISCSynonym>
                    <nciodm:CDISCDefinition>Functional Activities Questionnaire - Shopping alone for clothes, household necessities, or groceries.</nciodm:CDISCDefinition>
                    <nciodm:PreferredTerm>FAQ - Shop Alone</nciodm:PreferredTerm>
                </EnumeratedItem>
                <EnumeratedItem CodedValue="FAQ0104" nciodm:ExtCodeID="C111502">
                    <nciodm:CDISCSynonym>FAQ01-Playing a Game of Skill</nciodm:CDISCSynonym>
                    <nciodm:CDISCDefinition>Functional Activities Questionnaire - Playing a game of skill, working on a hobby.</nciodm:CDISCDefinition>
                    <nciodm:PreferredTerm>FAQ - Play Game of Skill, Work on Hobby</nciodm:PreferredTerm>
                </EnumeratedItem>
                <EnumeratedItem CodedValue="FAQ0105" nciodm:ExtCodeID="C111503">
                    <nciodm:CDISCSynonym>FAQ01-Heat Water/Make Coffee/Stove Off</nciodm:CDISCSynonym>
                    <nciodm:CDISCDefinition>Functional Activities Questionnaire - Heating water, making a cup of coffee, turning off stove after use.</nciodm:CDISCDefinition>
                    <nciodm:PreferredTerm>FAQ - Heat water, Make Coffee, Turn Off Stove</nciodm:PreferredTerm>
                </EnumeratedItem>
                <EnumeratedItem CodedValue="FAQ0106" nciodm:ExtCodeID="C111504">
                    <nciodm:CDISCSynonym>FAQ01-Preparing a Balanced Meal</nciodm:CDISCSynonym>
                    <nciodm:CDISCDefinition>Functional Activities Questionnaire - Preparing a balanced meal.</nciodm:CDISCDefinition>
                    <nciodm:PreferredTerm>FAQ - Prepare a Meal</nciodm:PreferredTerm>
                </EnumeratedItem>
                <EnumeratedItem CodedValue="FAQ0107" nciodm:ExtCodeID="C111505">
                    <nciodm:CDISCSynonym>FAQ01-Keeping Track of Current Events</nciodm:CDISCSynonym>
                    <nciodm:CDISCDefinition>Functional Activities Questionnaire - Keeping track of current events.</nciodm:CDISCDefinition>
                    <nciodm:PreferredTerm>FAQ - Keep Track of Current Events</nciodm:PreferredTerm>
                </EnumeratedItem>
                <EnumeratedItem CodedValue="FAQ0108" nciodm:ExtCodeID="C111506">
                    <nciodm:CDISCSynonym>FAQ01-Paying Attention</nciodm:CDISCSynonym>
                    <nciodm:CDISCDefinition>Functional Activities Questionnaire - Paying attention to, understanding, discussing TV, book, magazine.</nciodm:CDISCDefinition>
                    <nciodm:PreferredTerm>FAQ - Pay Attention, Understand, Discuss</nciodm:PreferredTerm>
                </EnumeratedItem>
                <EnumeratedItem CodedValue="FAQ0109" nciodm:ExtCodeID="C111507">
                    <nciodm:CDISCSynonym>FAQ01-Remembering</nciodm:CDISCSynonym>
                    <nciodm:CDISCDefinition>Functional Activities Questionnaire - Remembering appointments, family occasions, holidays, medications.</nciodm:CDISCDefinition>
                    <nciodm:PreferredTerm>FAQ - Remember</nciodm:PreferredTerm>
                </EnumeratedItem>
                <EnumeratedItem CodedValue="FAQ0110" nciodm:ExtCodeID="C111508">
                    <nciodm:CDISCSynonym>FAQ01-Traveling</nciodm:CDISCSynonym>
                    <nciodm:CDISCDefinition>Functional Activities Questionnaire - Traveling out of neighborhood, driving, arranging to take buses.</nciodm:CDISCDefinition>
                    <nciodm:PreferredTerm>FAQ - Travel</nciodm:PreferredTerm>
                </EnumeratedItem>
                <EnumeratedItem CodedValue="FAQ0111" nciodm:ExtCodeID="C111509">
                    <nciodm:CDISCSynonym>FAQ01-Total Score</nciodm:CDISCSynonym>
                    <nciodm:CDISCDefinition>Functional Activities Questionnaire - Total Score.</nciodm:CDISCDefinition>
                    <nciodm:PreferredTerm>FAQ - Total Score</nciodm:PreferredTerm>
                </EnumeratedItem>
                <nciodm:CDISCSubmissionValue>FAQ TESTCD</nciodm:CDISCSubmissionValue>
                <nciodm:CDISCSynonym>Functional Activities Questionnaire Test Code</nciodm:CDISCSynonym>
                <nciodm:PreferredTerm>CDISC Questionnaire FAQ Test Code Terminology</nciodm:PreferredTerm>
            </CodeList>
            
