<CodeList xmlns="http://www.cdisc.org/ns/odm/v1.3" xmlns:nciodm="http://ncicb.nci.nih.gov/xml/odm/EVS/CDISC" xmlns:xs="http://www.w3.org/2001/XMLSchema-instance" OID="CL.C120993.NSA01TC" Name="Negative Symptom Assessment-16 Clinical Classification Test Code" DataType="text" nciodm:ExtCodeID="C120993" nciodm:CodeListExtensible="No">
                <Description>
                    <TranslatedText xml:lang="en">Negative Symptom Assessment-16 test code.</TranslatedText>
                </Description>
                <EnumeratedItem CodedValue="NSA0101" nciodm:ExtCodeID="C121077">
                    <nciodm:CDISCSynonym>NSA01-Prolonged Time to Respond</nciodm:CDISCSynonym>
                    <nciodm:CDISCDefinition>Negative Symptom Assessment-16 - Prolonged time to respond.</nciodm:CDISCDefinition>
                    <nciodm:PreferredTerm>NSA-16 - Prolonged Time to Respond</nciodm:PreferredTerm>
                </EnumeratedItem>
                <EnumeratedItem CodedValue="NSA0102" nciodm:ExtCodeID="C121078">
                    <nciodm:CDISCSynonym>NSA01-Restricted Speech Quantity</nciodm:CDISCSynonym>
                    <nciodm:CDISCDefinition>Negative Symptom Assessment-16 - Restricted speech quantity.</nciodm:CDISCDefinition>
                    <nciodm:PreferredTerm>NSA-16 - Restricted Speech Quantity</nciodm:PreferredTerm>
                </EnumeratedItem>
                <EnumeratedItem CodedValue="NSA0103" nciodm:ExtCodeID="C121079">
                    <nciodm:CDISCSynonym>NSA01-Impoverished Speech Content</nciodm:CDISCSynonym>
                    <nciodm:CDISCDefinition>Negative Symptom Assessment-16 - Impoverished speech content.</nciodm:CDISCDefinition>
                    <nciodm:PreferredTerm>NSA-16 - Impoverished Speech Content</nciodm:PreferredTerm>
                </EnumeratedItem>
                <EnumeratedItem CodedValue="NSA0104" nciodm:ExtCodeID="C121080">
                    <nciodm:CDISCSynonym>NSA01-Inarticulate Speech</nciodm:CDISCSynonym>
                    <nciodm:CDISCDefinition>Negative Symptom Assessment-16 - Inarticulate speech.</nciodm:CDISCDefinition>
                    <nciodm:PreferredTerm>NSA-16 - Inarticulate Speech</nciodm:PreferredTerm>
                </EnumeratedItem>
                <EnumeratedItem CodedValue="NSA0105" nciodm:ExtCodeID="C121081">
                    <nciodm:CDISCSynonym>NSA01-Emotion: Reduced Range</nciodm:CDISCSynonym>
                    <nciodm:CDISCDefinition>Negative Symptom Assessment-16 - Emotion: Reduced range.</nciodm:CDISCDefinition>
                    <nciodm:PreferredTerm>NSA-16 - Emotion: Reduced Range</nciodm:PreferredTerm>
                </EnumeratedItem>
                <EnumeratedItem CodedValue="NSA0106" nciodm:ExtCodeID="C121082">
                    <nciodm:CDISCSynonym>NSA01-Affect Reduce Modulation Intensity</nciodm:CDISCSynonym>
                    <nciodm:CDISCDefinition>Negative Symptom Assessment-16 - Affect: Reduced modulation of intensity.</nciodm:CDISCDefinition>
                    <nciodm:PreferredTerm>NSA-16 - Affect: Reduce Modulation Intensity</nciodm:PreferredTerm>
                </EnumeratedItem>
                <EnumeratedItem CodedValue="NSA0107" nciodm:ExtCodeID="C121083">
                    <nciodm:CDISCSynonym>NSA01-Affect: Reduced Display on Demand</nciodm:CDISCSynonym>
                    <nciodm:CDISCDefinition>Negative Symptom Assessment-16 - Affect: Reduced display on demand.</nciodm:CDISCDefinition>
                    <nciodm:PreferredTerm>NSA-16 - Affect: Reduced Display on Demand</nciodm:PreferredTerm>
                </EnumeratedItem>
                <EnumeratedItem CodedValue="NSA0108" nciodm:ExtCodeID="C121084">
                    <nciodm:CDISCSynonym>NSA01-Reduced Social Drive</nciodm:CDISCSynonym>
                    <nciodm:CDISCDefinition>Negative Symptom Assessment-16 - Reduced social drive.</nciodm:CDISCDefinition>
                    <nciodm:PreferredTerm>NSA-16 - Reduced Social Drive</nciodm:PreferredTerm>
                </EnumeratedItem>
                <EnumeratedItem CodedValue="NSA0109" nciodm:ExtCodeID="C121085">
                    <nciodm:CDISCSynonym>NSA01-Poor Rapport With Interviewer</nciodm:CDISCSynonym>
                    <nciodm:CDISCDefinition>Negative Symptom Assessment-16 - Poor rapport with interviewer.</nciodm:CDISCDefinition>
                    <nciodm:PreferredTerm>NSA-16 - Poor Rapport With Interviewer</nciodm:PreferredTerm>
                </EnumeratedItem>
                <EnumeratedItem CodedValue="NSA0110" nciodm:ExtCodeID="C121086">
                    <nciodm:CDISCSynonym>NSA01-Interest Emotional/Phys Intimacy</nciodm:CDISCSynonym>
                    <nciodm:CDISCDefinition>Negative Symptom Assessment-16 - Interest in emotional and physical intimacy.</nciodm:CDISCDefinition>
                    <nciodm:PreferredTerm>NSA-16 - Interest in Emotional and Physical Intimacy</nciodm:PreferredTerm>
                </EnumeratedItem>
                <EnumeratedItem CodedValue="NSA0111" nciodm:ExtCodeID="C121087">
                    <nciodm:CDISCSynonym>NSA01-Poor Grooming and Hygiene</nciodm:CDISCSynonym>
                    <nciodm:CDISCDefinition>Negative Symptom Assessment-16 - Poor grooming and hygiene.</nciodm:CDISCDefinition>
                    <nciodm:PreferredTerm>NSA-16 - Poor Grooming and Hygiene</nciodm:PreferredTerm>
                </EnumeratedItem>
                <EnumeratedItem CodedValue="NSA0112" nciodm:ExtCodeID="C121088">
                    <nciodm:CDISCSynonym>NSA01-Reduced Sense of Purpose</nciodm:CDISCSynonym>
                    <nciodm:CDISCDefinition>Negative Symptom Assessment-16 - Reduced sense of purpose.</nciodm:CDISCDefinition>
                    <nciodm:PreferredTerm>NSA-16 - Reduced Sense of Purpose</nciodm:PreferredTerm>
                </EnumeratedItem>
                <EnumeratedItem CodedValue="NSA0113" nciodm:ExtCodeID="C121089">
                    <nciodm:CDISCSynonym>NSA01-Reduced Interests</nciodm:CDISCSynonym>
                    <nciodm:CDISCDefinition>Negative Symptom Assessment-16 - Reduced interests.</nciodm:CDISCDefinition>
                    <nciodm:PreferredTerm>NSA-16 - Reduced Interests</nciodm:PreferredTerm>
                </EnumeratedItem>
                <EnumeratedItem CodedValue="NSA0114" nciodm:ExtCodeID="C121090">
                    <nciodm:CDISCSynonym>NSA01-Reduced Daily Activity</nciodm:CDISCSynonym>
                    <nciodm:CDISCDefinition>Negative Symptom Assessment-16 - Reduced daily activity.</nciodm:CDISCDefinition>
                    <nciodm:PreferredTerm>NSA-16 - Reduced Daily Activity</nciodm:PreferredTerm>
                </EnumeratedItem>
                <EnumeratedItem CodedValue="NSA0115" nciodm:ExtCodeID="C121091">
                    <nciodm:CDISCSynonym>NSA01-Reduced Expressive Gestures</nciodm:CDISCSynonym>
                    <nciodm:CDISCDefinition>Negative Symptom Assessment-16 - Reduced expressive gestures.</nciodm:CDISCDefinition>
                    <nciodm:PreferredTerm>NSA-16 - Reduced Expressive Gestures</nciodm:PreferredTerm>
                </EnumeratedItem>
                <EnumeratedItem CodedValue="NSA0116" nciodm:ExtCodeID="C121092">
                    <nciodm:CDISCSynonym>NSA01-Slowed Movements</nciodm:CDISCSynonym>
                    <nciodm:CDISCDefinition>Negative Symptom Assessment-16 - Slowed movements.</nciodm:CDISCDefinition>
                    <nciodm:PreferredTerm>NSA-16 - Slowed Movements</nciodm:PreferredTerm>
                </EnumeratedItem>
                <EnumeratedItem CodedValue="NSA0117" nciodm:ExtCodeID="C121093">
                    <nciodm:CDISCSynonym>NSA01-Global Negative Symptoms Rating</nciodm:CDISCSynonym>
                    <nciodm:CDISCDefinition>Negative Symptom Assessment-16 - Global negative symptoms rating.</nciodm:CDISCDefinition>
                    <nciodm:PreferredTerm>NSA-16 - Global Negative Symptoms Rating</nciodm:PreferredTerm>
                </EnumeratedItem>
                <EnumeratedItem CodedValue="NSA0118" nciodm:ExtCodeID="C121094">
                    <nciodm:CDISCSynonym>NSA01-Global Neg Symptom Rating-Severity</nciodm:CDISCSynonym>
                    <nciodm:CDISCDefinition>Negative Symptom Assessment-16 - Global negative symptoms rating - severity.</nciodm:CDISCDefinition>
                    <nciodm:PreferredTerm>NSA-16 - Global Negative Symptoms Rating-Severity</nciodm:PreferredTerm>
                </EnumeratedItem>
                <EnumeratedItem CodedValue="NSA0119" nciodm:ExtCodeID="C121095">
                    <nciodm:CDISCSynonym>NSA01-Global Level of Functioning</nciodm:CDISCSynonym>
                    <nciodm:CDISCDefinition>Negative Symptom Assessment-16 - Global level of functioning.</nciodm:CDISCDefinition>
                    <nciodm:PreferredTerm>NSA-16 - Global Level of Functioning</nciodm:PreferredTerm>
                </EnumeratedItem>
                <nciodm:CDISCSubmissionValue>NSA01TC</nciodm:CDISCSubmissionValue>
                <nciodm:CDISCSynonym>Negative Symptom Assessment-16 Clinical Classification Test Code</nciodm:CDISCSynonym>
                <nciodm:PreferredTerm>CDISC Clinical Classification NSA-16 Test Code Terminology</nciodm:PreferredTerm>
            </CodeList>
            
