<CodeList xmlns="http://www.cdisc.org/ns/odm/v1.3" xmlns:nciodm="http://ncicb.nci.nih.gov/xml/odm/EVS/CDISC" xmlns:xs="http://www.w3.org/2001/XMLSchema-instance" OID="CL.C85494.PKUNIT" Name="PK Units of Measure" DataType="text" nciodm:ExtCodeID="C85494" nciodm:CodeListExtensible="Yes">
                <Description>
                    <TranslatedText xml:lang="en">Units of measure for pharmacokinetic data and parameters.</TranslatedText>
                </Description>
                <EnumeratedItem CodedValue="%" nciodm:ExtCodeID="C25613">
                    <nciodm:CDISCSynonym>Percentage</nciodm:CDISCSynonym>
                    <nciodm:CDISCDefinition>A fraction or ratio with 100 understood as the denominator. (NCI)</nciodm:CDISCDefinition>
                    <nciodm:PreferredTerm>Percentage</nciodm:PreferredTerm>
                </EnumeratedItem>
                <EnumeratedItem CodedValue="(L/day)/(kg/m2)" nciodm:ExtCodeID="C120727">
                    <nciodm:CDISCDefinition>Liters per day (flow rate), divided by kilograms per meter squared (body mass index).</nciodm:CDISCDefinition>
                    <nciodm:PreferredTerm>Liter per Day per Kilogram per Meter Squared</nciodm:PreferredTerm>
                </EnumeratedItem>
                <EnumeratedItem CodedValue="(L/day)/(mg/day)" nciodm:ExtCodeID="C120728">
                    <nciodm:CDISCDefinition>Liters per day (flow rate), divided by milligrams per day (daily dose).</nciodm:CDISCDefinition>
                    <nciodm:PreferredTerm>Liter per Day per Milligram per Day</nciodm:PreferredTerm>
                </EnumeratedItem>
                <EnumeratedItem CodedValue="(L/day)/(mg/kg)" nciodm:ExtCodeID="C120729">
                    <nciodm:CDISCDefinition>Liters per day (flow rate), divided by milligrams per kilogram (dose normalized by body weight).</nciodm:CDISCDefinition>
                    <nciodm:PreferredTerm>Liter per Day per Milligram per Kilogram</nciodm:PreferredTerm>
                </EnumeratedItem>
                <EnumeratedItem CodedValue="(L/day)/(mg/kg/day)" nciodm:ExtCodeID="C120730">
                    <nciodm:CDISCDefinition>Liters per day (flow rate), divided by milligrams per kilogram per day (daily dose normalized by body weight).</nciodm:CDISCDefinition>
                    <nciodm:PreferredTerm>Liter per Day per Milligram per Kilogram per Day</nciodm:PreferredTerm>
                </EnumeratedItem>
                <EnumeratedItem CodedValue="(L/day)/(mg/m2)" nciodm:ExtCodeID="C120731">
                    <nciodm:CDISCDefinition>Liters per day (flow rate), divided by milligrams per meter squared (dose normalized by surface area).</nciodm:CDISCDefinition>
                    <nciodm:PreferredTerm>Liter per Day per Milligram per Meter Squared</nciodm:PreferredTerm>
                </EnumeratedItem>
                <EnumeratedItem CodedValue="(L/day)/(mg/m2/day)" nciodm:ExtCodeID="C120732">
                    <nciodm:CDISCDefinition>Liters per day (flow rate), divided by milligrams per meter squared per day (daily dose normalized by surface area).</nciodm:CDISCDefinition>
                    <nciodm:PreferredTerm>Liter per Day per Milligram per Meter Squared per Day</nciodm:PreferredTerm>
                </EnumeratedItem>
                <EnumeratedItem CodedValue="(L/day)/(ug/day)" nciodm:ExtCodeID="C120733">
                    <nciodm:CDISCDefinition>Liters per day (flow rate), divided by micrograms per day (daily dose).</nciodm:CDISCDefinition>
                    <nciodm:PreferredTerm>Liter per Day per Microgram per Day</nciodm:PreferredTerm>
                </EnumeratedItem>
                <EnumeratedItem CodedValue="(L/day)/(ug/kg)" nciodm:ExtCodeID="C120734">
                    <nciodm:CDISCDefinition>Liters per day (flow rate), divided by micrograms per kilogram (dose normalized by body weight).</nciodm:CDISCDefinition>
                    <nciodm:PreferredTerm>Liter per Day per Microgram per Kilogram</nciodm:PreferredTerm>
                </EnumeratedItem>
                <EnumeratedItem CodedValue="(L/day)/(ug/kg/day)" nciodm:ExtCodeID="C120735">
                    <nciodm:CDISCDefinition>Liters per day (flow rate), divided by micrograms per kilogram per day (daily dose normalized by body weight).</nciodm:CDISCDefinition>
                    <nciodm:PreferredTerm>Liter per Day per Microgram per Kilogram per Day</nciodm:PreferredTerm>
                </EnumeratedItem>
                <EnumeratedItem CodedValue="(L/day)/(ug/m2)" nciodm:ExtCodeID="C120736">
                    <nciodm:CDISCDefinition>Liters per day (flow rate), divided by micrograms per meter squared (dose normalized by surface area).</nciodm:CDISCDefinition>
                    <nciodm:PreferredTerm>Liter per Day per Microgram per Meter Squared</nciodm:PreferredTerm>
                </EnumeratedItem>
                <EnumeratedItem CodedValue="(L/day)/(ug/m2/day)" nciodm:ExtCodeID="C120737">
                    <nciodm:CDISCDefinition>Liters per day (flow rate), divided by micrograms per meter squared per day (daily dose normalized by surface area).</nciodm:CDISCDefinition>
                    <nciodm:PreferredTerm>Liter per Day per Microgram per Meter Squared per Day</nciodm:PreferredTerm>
                </EnumeratedItem>
                <EnumeratedItem CodedValue="(L/day)/g" nciodm:ExtCodeID="C85657">
                    <nciodm:CDISCDefinition>Liters per day (flow rate), divided by grams (weight).</nciodm:CDISCDefinition>
                    <nciodm:PreferredTerm>Liter per Gram per Day</nciodm:PreferredTerm>
                </EnumeratedItem>
                <EnumeratedItem CodedValue="(L/day)/m2" nciodm:ExtCodeID="C120738">
                    <nciodm:CDISCDefinition>Liters per day (flow rate), divided by meters squared (surface area).</nciodm:CDISCDefinition>
                    <nciodm:PreferredTerm>Liter per Day per Meter Squared</nciodm:PreferredTerm>
                </EnumeratedItem>
                <EnumeratedItem CodedValue="(L/day)/mg" nciodm:ExtCodeID="C85672">
                    <nciodm:CDISCDefinition>Liters per day (flow rate), divided by milligrams (dose).</nciodm:CDISCDefinition>
                    <nciodm:PreferredTerm>Liter per Milligram per Day</nciodm:PreferredTerm>
                </EnumeratedItem>
                <EnumeratedItem CodedValue="(L/day)/ug" nciodm:ExtCodeID="C85665">
                    <nciodm:CDISCDefinition>Liters per day (flow rate), divided by micrograms (dose).</nciodm:CDISCDefinition>
                    <nciodm:PreferredTerm>Liter per Microgram per Day</nciodm:PreferredTerm>
                </EnumeratedItem>
                <EnumeratedItem CodedValue="(L/h)/(kg/m2)" nciodm:ExtCodeID="C120739">
                    <nciodm:CDISCDefinition>Liters per hour (flow rate), divided by kilograms per meter squared (body mass index).</nciodm:CDISCDefinition>
                    <nciodm:PreferredTerm>Liter per Hour per Kilogram per Meter Squared</nciodm:PreferredTerm>
                </EnumeratedItem>
                <EnumeratedItem CodedValue="(L/h)/(mg/day)" nciodm:ExtCodeID="C120740">
                    <nciodm:CDISCDefinition>Liters per hour (flow rate), divided by milligrams per day (daily dose).</nciodm:CDISCDefinition>
                    <nciodm:PreferredTerm>Liter per Hour per Milligram per Day</nciodm:PreferredTerm>
                </EnumeratedItem>
                <EnumeratedItem CodedValue="(L/h)/(mg/kg)" nciodm:ExtCodeID="C120741">
                    <nciodm:CDISCDefinition>Liters per hour (flow rate), divided by milligrams per kilogram (dose normalized by body weight).</nciodm:CDISCDefinition>
                    <nciodm:PreferredTerm>Liter per Hour per Milligram per Kilogram</nciodm:PreferredTerm>
                </EnumeratedItem>
                <EnumeratedItem CodedValue="(L/h)/(mg/kg/day)" nciodm:ExtCodeID="C120742">
                    <nciodm:CDISCDefinition>Liters per hour (flow rate), divided by milligrams per kilogram per day (daily dose normalized by body weight).</nciodm:CDISCDefinition>
                    <nciodm:PreferredTerm>Liter per Hour per Milligram per Kilogram per Day</nciodm:PreferredTerm>
                </EnumeratedItem>
                <EnumeratedItem CodedValue="(L/h)/(mg/m2)" nciodm:ExtCodeID="C120743">
                    <nciodm:CDISCDefinition>Liters per hour (flow rate), divided by milligrams per meter squared (dose normalized by surface area).</nciodm:CDISCDefinition>
                    <nciodm:PreferredTerm>Liter per Hour per Milligram per Meter Squared</nciodm:PreferredTerm>
                </EnumeratedItem>
                <EnumeratedItem CodedValue="(L/h)/(mg/m2/day)" nciodm:ExtCodeID="C120744">
                    <nciodm:CDISCDefinition>Liters per hour (flow rate), divided by milligrams per meter squared per day (daily dose normalized by surface area).</nciodm:CDISCDefinition>
                    <nciodm:PreferredTerm>Liter per Hour per Milligram per Meter Squared per Day</nciodm:PreferredTerm>
                </EnumeratedItem>
                <EnumeratedItem CodedValue="(L/h)/(ug/day)" nciodm:ExtCodeID="C120745">
                    <nciodm:CDISCDefinition>Liters per hour (flow rate), divided by micrograms per day (daily dose).</nciodm:CDISCDefinition>
                    <nciodm:PreferredTerm>Liter per Hour per Microgram per Day</nciodm:PreferredTerm>
                </EnumeratedItem>
                <EnumeratedItem CodedValue="(L/h)/(ug/kg)" nciodm:ExtCodeID="C120746">
                    <nciodm:CDISCDefinition>Liters per hour (flow rate), divided by micrograms per kilogram (dose normalized by body weight).</nciodm:CDISCDefinition>
                    <nciodm:PreferredTerm>Liter per Hour per Microgram per Kilogram</nciodm:PreferredTerm>
                </EnumeratedItem>
                <EnumeratedItem CodedValue="(L/h)/(ug/kg/day)" nciodm:ExtCodeID="C120747">
                    <nciodm:CDISCDefinition>Liters per hour (flow rate), divided by micrograms per kilogram per day (daily dose normalized by body weight).</nciodm:CDISCDefinition>
                    <nciodm:PreferredTerm>Liter per Hour per Microgram per Kilogram per Day</nciodm:PreferredTerm>
                </EnumeratedItem>
                <EnumeratedItem CodedValue="(L/h)/(ug/m2)" nciodm:ExtCodeID="C120748">
                    <nciodm:CDISCDefinition>Liters per hour (flow rate), divided by micrograms per meter squared (dose normalized by surface area).</nciodm:CDISCDefinition>
                    <nciodm:PreferredTerm>Liter per Hour per Microgram per Meter Squared</nciodm:PreferredTerm>
                </EnumeratedItem>
                <EnumeratedItem CodedValue="(L/h)/(ug/m2/day)" nciodm:ExtCodeID="C120749">
                    <nciodm:CDISCDefinition>Liters per hour (flow rate), divided by micrograms per meter squared per day (daily dose normalized by surface area).</nciodm:CDISCDefinition>
                    <nciodm:PreferredTerm>Liter per Hour per Microgram per Meter Squared per Day</nciodm:PreferredTerm>
                </EnumeratedItem>
                <EnumeratedItem CodedValue="(L/h)/g" nciodm:ExtCodeID="C85658">
                    <nciodm:CDISCDefinition>Liters per hour (flow rate), divided by grams (weight).</nciodm:CDISCDefinition>
                    <nciodm:PreferredTerm>Liter per Gram per Hour</nciodm:PreferredTerm>
                </EnumeratedItem>
                <EnumeratedItem CodedValue="(L/h)/mg" nciodm:ExtCodeID="C85673">
                    <nciodm:CDISCDefinition>Liters per day (flow rate), divided by milligrams (dose).</nciodm:CDISCDefinition>
                    <nciodm:PreferredTerm>Liter per Milligram per Hour</nciodm:PreferredTerm>
                </EnumeratedItem>
                <EnumeratedItem CodedValue="(L/h)/ug" nciodm:ExtCodeID="C85662">
                    <nciodm:CDISCDefinition>Liters per hour (flow rate), divided by micrograms (dose).</nciodm:CDISCDefinition>
                    <nciodm:PreferredTerm>Liter per Microgram per Hour</nciodm:PreferredTerm>
                </EnumeratedItem>
                <EnumeratedItem CodedValue="(L/min)/(kg/m2)" nciodm:ExtCodeID="C120750">
                    <nciodm:CDISCDefinition>Liters per minute (flow rate), divided by kilograms per meter squared (body mass index).</nciodm:CDISCDefinition>
                    <nciodm:PreferredTerm>Liter per Minute per Kilogram per Meter Squared</nciodm:PreferredTerm>
                </EnumeratedItem>
                <EnumeratedItem CodedValue="(L/min)/(mg/day)" nciodm:ExtCodeID="C120751">
                    <nciodm:CDISCDefinition>Liters per minute (flow rate), divided by milligrams per day (daily dose).</nciodm:CDISCDefinition>
                    <nciodm:PreferredTerm>Liter per Minute per Milligram per Day</nciodm:PreferredTerm>
                </EnumeratedItem>
                <EnumeratedItem CodedValue="(L/min)/(mg/kg)" nciodm:ExtCodeID="C120752">
                    <nciodm:CDISCDefinition>Liters per minute (flow rate), divided by milligrams per kilogram (dose normalized by body weight).</nciodm:CDISCDefinition>
                    <nciodm:PreferredTerm>Liter per Minute per Milligram per Kilogram</nciodm:PreferredTerm>
                </EnumeratedItem>
                <EnumeratedItem CodedValue="(L/min)/(mg/kg/day)" nciodm:ExtCodeID="C120753">
                    <nciodm:CDISCDefinition>Liters per minute (flow rate), divided by milligrams per kilogram per day (daily dose normalized by body weight).</nciodm:CDISCDefinition>
                    <nciodm:PreferredTerm>Liter per Minute per Milligram per Kilogram per Day</nciodm:PreferredTerm>
                </EnumeratedItem>
                <EnumeratedItem CodedValue="(L/min)/(mg/m2)" nciodm:ExtCodeID="C120754">
                    <nciodm:CDISCDefinition>Liters per minute (flow rate), divided by milligrams per meter squared (dose normalized by surface area).</nciodm:CDISCDefinition>
                    <nciodm:PreferredTerm>Liter per Minute per Milligram per Meter Squared</nciodm:PreferredTerm>
                </EnumeratedItem>
                <EnumeratedItem CodedValue="(L/min)/(mg/m2/day)" nciodm:ExtCodeID="C120755">
                    <nciodm:CDISCDefinition>Liters per minute (flow rate), divided by milligrams per meter squared per day (daily dose normalized by surface area).</nciodm:CDISCDefinition>
                    <nciodm:PreferredTerm>Liter per Minute per Milligram per Meter Squared per Day</nciodm:PreferredTerm>
                </EnumeratedItem>
                <EnumeratedItem CodedValue="(L/min)/(ug/day)" nciodm:ExtCodeID="C120756">
                    <nciodm:CDISCDefinition>Liters per minute (flow rate), divided by micrograms per day (daily dose).</nciodm:CDISCDefinition>
                    <nciodm:PreferredTerm>Liter per Minute per Microgram per Day</nciodm:PreferredTerm>
                </EnumeratedItem>
                <EnumeratedItem CodedValue="(L/min)/(ug/kg)" nciodm:ExtCodeID="C120757">
                    <nciodm:CDISCDefinition>Liters per minute (flow rate), divided by micrograms per kilogram (dose normalized by body weight).</nciodm:CDISCDefinition>
                    <nciodm:PreferredTerm>Liter per Minute per Microgram per Kilogram</nciodm:PreferredTerm>
                </EnumeratedItem>
                <EnumeratedItem CodedValue="(L/min)/(ug/kg/day)" nciodm:ExtCodeID="C120758">
                    <nciodm:CDISCDefinition>Liters per minute (flow rate), divided by micrograms per kilogram per day (daily dose normalized by body weight).</nciodm:CDISCDefinition>
                    <nciodm:PreferredTerm>Liter per Minute per Microgram per Kilogram per Day</nciodm:PreferredTerm>
                </EnumeratedItem>
                <EnumeratedItem CodedValue="(L/min)/(ug/m2)" nciodm:ExtCodeID="C120759">
                    <nciodm:CDISCDefinition>Liters per minute (flow rate), divided by micrograms per meter squared (dose normalized by surface area).</nciodm:CDISCDefinition>
                    <nciodm:PreferredTerm>Liter per Minute per Microgram per Meter Squared</nciodm:PreferredTerm>
                </EnumeratedItem>
                <EnumeratedItem CodedValue="(L/min)/(ug/m2/day)" nciodm:ExtCodeID="C120760">
                    <nciodm:CDISCDefinition>Liters per minute (flow rate), divided by micrograms per meter squared per day (daily dose normalized by surface area).</nciodm:CDISCDefinition>
                    <nciodm:PreferredTerm>Liter per Minute per Microgram per Meter Squared per Day</nciodm:PreferredTerm>
                </EnumeratedItem>
                <EnumeratedItem CodedValue="(L/min)/g" nciodm:ExtCodeID="C85659">
                    <nciodm:CDISCDefinition>Liters per minute (flow rate), divided by grams (weight).</nciodm:CDISCDefinition>
                    <nciodm:PreferredTerm>Liter per Gram per Minute</nciodm:PreferredTerm>
                </EnumeratedItem>
                <EnumeratedItem CodedValue="(L/min)/mg" nciodm:ExtCodeID="C85674">
                    <nciodm:CDISCDefinition>Liters per minute (flow rate), divided by milligrams (dose).</nciodm:CDISCDefinition>
                    <nciodm:PreferredTerm>Liter per Milligram per Minute</nciodm:PreferredTerm>
                </EnumeratedItem>
                <EnumeratedItem CodedValue="(L/min)/ug" nciodm:ExtCodeID="C85666">
                    <nciodm:CDISCDefinition>Liters per minute (flow rate), divided by micrograms (dose).</nciodm:CDISCDefinition>
                    <nciodm:PreferredTerm>Liter per Microgram per Minute</nciodm:PreferredTerm>
                </EnumeratedItem>
                <EnumeratedItem CodedValue="(mL/day)/(kg/m2)" nciodm:ExtCodeID="C120761">
                    <nciodm:CDISCDefinition>Milliliters per day (flow rate), divided by kilograms per meter squared (body mass index).</nciodm:CDISCDefinition>
                    <nciodm:PreferredTerm>Milliliter per Day per Kilogram per Meter Squared</nciodm:PreferredTerm>
                </EnumeratedItem>
                <EnumeratedItem CodedValue="(mL/day)/(mg/day)" nciodm:ExtCodeID="C120762">
                    <nciodm:CDISCDefinition>Milliliters per day (flow rate), divided by milligrams per day (daily dose).</nciodm:CDISCDefinition>
                    <nciodm:PreferredTerm>Milliliter per Day per Milligram per Day</nciodm:PreferredTerm>
                </EnumeratedItem>
                <EnumeratedItem CodedValue="(mL/day)/(mg/kg)" nciodm:ExtCodeID="C120763">
                    <nciodm:CDISCDefinition>Milliliters per day (flow rate), divided by milligrams per kilogram (dose normalized by body weight).</nciodm:CDISCDefinition>
                    <nciodm:PreferredTerm>Milliliter per Day per Milligram per Kilogram</nciodm:PreferredTerm>
                </EnumeratedItem>
                <EnumeratedItem CodedValue="(mL/day)/(mg/kg/day)" nciodm:ExtCodeID="C120764">
                    <nciodm:CDISCDefinition>Milliliters per day (flow rate), divided by milligrams per kilogram per day (daily dose normalized by body weight).</nciodm:CDISCDefinition>
                    <nciodm:PreferredTerm>Milliliter per Day per Milligram per Kilogram per Day</nciodm:PreferredTerm>
                </EnumeratedItem>
                <EnumeratedItem CodedValue="(mL/day)/(mg/m2)" nciodm:ExtCodeID="C120765">
                    <nciodm:CDISCDefinition>Milliliters per day (flow rate), divided by milligrams per meter squared (dose normalized by surface area).</nciodm:CDISCDefinition>
                    <nciodm:PreferredTerm>Milliliter per Day per Milligram per Meter Squared</nciodm:PreferredTerm>
                </EnumeratedItem>
                <EnumeratedItem CodedValue="(mL/day)/(mg/m2/day)" nciodm:ExtCodeID="C120766">
                    <nciodm:CDISCDefinition>Milliliters per day (flow rate), divided by milligrams per meter squared per day (daily dose normalized by surface area).</nciodm:CDISCDefinition>
                    <nciodm:PreferredTerm>Milliliter per Day per Milligram per Meter Squared per Day</nciodm:PreferredTerm>
                </EnumeratedItem>
                <EnumeratedItem CodedValue="(mL/day)/(ug/day)" nciodm:ExtCodeID="C120767">
                    <nciodm:CDISCDefinition>Milliliters per day (flow rate), divided by micrograms per day (daily dose).</nciodm:CDISCDefinition>
                    <nciodm:PreferredTerm>Milliliter per Day per Microgram per Day</nciodm:PreferredTerm>
                </EnumeratedItem>
                <EnumeratedItem CodedValue="(mL/day)/(ug/kg)" nciodm:ExtCodeID="C120768">
                    <nciodm:CDISCDefinition>Milliliters per day (flow rate), divided by micrograms per kilogram (dose normalized by body weight).</nciodm:CDISCDefinition>
                    <nciodm:PreferredTerm>Milliliter per Day per Microgram per Kilogram</nciodm:PreferredTerm>
                </EnumeratedItem>
                <EnumeratedItem CodedValue="(mL/day)/(ug/kg/day)" nciodm:ExtCodeID="C120769">
                    <nciodm:CDISCDefinition>Milliliters per day (flow rate), divided by micrograms per kilogram per day (daily dose normalized by body weight).</nciodm:CDISCDefinition>
                    <nciodm:PreferredTerm>Milliliter per Day per Microgram per Kilogram per Day</nciodm:PreferredTerm>
                </EnumeratedItem>
                <EnumeratedItem CodedValue="(mL/day)/(ug/m2)" nciodm:ExtCodeID="C120770">
                    <nciodm:CDISCDefinition>Milliliters per day (flow rate), divided by micrograms per meter squared (dose normalized by surface area).</nciodm:CDISCDefinition>
                    <nciodm:PreferredTerm>Milliliter per Day per Microgram per Meter Squared</nciodm:PreferredTerm>
                </EnumeratedItem>
                <EnumeratedItem CodedValue="(mL/day)/(ug/m2/day)" nciodm:ExtCodeID="C120771">
                    <nciodm:CDISCDefinition>Milliliters per day (flow rate), divided by micrograms per meter squared per day (daily dose normalized by surface area).</nciodm:CDISCDefinition>
                    <nciodm:PreferredTerm>Milliliter per Day per Microgram per Meter Squared per Day</nciodm:PreferredTerm>
                </EnumeratedItem>
                <EnumeratedItem CodedValue="(mL/day)/g" nciodm:ExtCodeID="C120772">
                    <nciodm:CDISCDefinition>Milliliters per day (flow rate), divided by grams (weight).</nciodm:CDISCDefinition>
                    <nciodm:PreferredTerm>Milliliter per Day per Gram</nciodm:PreferredTerm>
                </EnumeratedItem>
                <EnumeratedItem CodedValue="(mL/day)/m2" nciodm:ExtCodeID="C120773">
                    <nciodm:CDISCDefinition>Milliliters per day (flow rate), divided by meters squared (surface area).</nciodm:CDISCDefinition>
                    <nciodm:PreferredTerm>Milliliter per Day per Meter Squared</nciodm:PreferredTerm>
                </EnumeratedItem>
                <EnumeratedItem CodedValue="(mL/day)/mg" nciodm:ExtCodeID="C120774">
                    <nciodm:CDISCDefinition>Milliliters per day (flow rate), divided by milligrams (dose).</nciodm:CDISCDefinition>
                    <nciodm:PreferredTerm>Milliliter per Day per Milligram</nciodm:PreferredTerm>
                </EnumeratedItem>
                <EnumeratedItem CodedValue="(mL/day)/ug" nciodm:ExtCodeID="C120775">
                    <nciodm:CDISCDefinition>Milliliters per day (flow rate), divided by micrograms (dose).</nciodm:CDISCDefinition>
                    <nciodm:PreferredTerm>Milliliter per Day per Microgram</nciodm:PreferredTerm>
                </EnumeratedItem>
                <EnumeratedItem CodedValue="(mL/h)/(kg/m2)" nciodm:ExtCodeID="C120776">
                    <nciodm:CDISCDefinition>Milliliters per hour (flow rate), divided by kilograms per meter squared (body mass index).</nciodm:CDISCDefinition>
                    <nciodm:PreferredTerm>Milliliter per Hour per Kilogram per Meter Squared</nciodm:PreferredTerm>
                </EnumeratedItem>
                <EnumeratedItem CodedValue="(mL/h)/(mg/day)" nciodm:ExtCodeID="C120777">
                    <nciodm:CDISCDefinition>Milliliters per hour (flow rate), divided by milligrams per day (daily dose).</nciodm:CDISCDefinition>
                    <nciodm:PreferredTerm>Milliliter per Hour per Milligram per Day</nciodm:PreferredTerm>
                </EnumeratedItem>
                <EnumeratedItem CodedValue="(mL/h)/(mg/kg)" nciodm:ExtCodeID="C120778">
                    <nciodm:CDISCDefinition>Milliliters per hour (flow rate), divided by milligrams per kilogram (dose normalized by body weight).</nciodm:CDISCDefinition>
                    <nciodm:PreferredTerm>Milliliter per Hour per Milligram per Kilogram</nciodm:PreferredTerm>
                </EnumeratedItem>
                <EnumeratedItem CodedValue="(mL/h)/(mg/kg/day)" nciodm:ExtCodeID="C120779">
                    <nciodm:CDISCDefinition>Milliliters per hour (flow rate), divided by milligrams per kilogram per day (daily dose normalized by body weight).</nciodm:CDISCDefinition>
                    <nciodm:PreferredTerm>Milliliter per Hour per Milligram per Kilogram per Day</nciodm:PreferredTerm>
                </EnumeratedItem>
                <EnumeratedItem CodedValue="(mL/h)/(mg/m2)" nciodm:ExtCodeID="C120780">
                    <nciodm:CDISCDefinition>Milliliters per hour (flow rate), divided by milligrams per meter squared (dose normalized by surface area).</nciodm:CDISCDefinition>
                    <nciodm:PreferredTerm>Milliliter per Hour per Milligram per Meter Squared</nciodm:PreferredTerm>
                </EnumeratedItem>
                <EnumeratedItem CodedValue="(mL/h)/(mg/m2/day)" nciodm:ExtCodeID="C120781">
                    <nciodm:CDISCDefinition>Milliliters per hour (flow rate), divided by milligrams per meter squared per day (daily dose normalized by surface area).</nciodm:CDISCDefinition>
                    <nciodm:PreferredTerm>Milliliter per Hour per Milligram per Meter Squared per Day</nciodm:PreferredTerm>
                </EnumeratedItem>
                <EnumeratedItem CodedValue="(mL/h)/(ug/day)" nciodm:ExtCodeID="C120782">
                    <nciodm:CDISCDefinition>Milliliters per hour (flow rate), divided by micrograms per day (daily dose).</nciodm:CDISCDefinition>
                    <nciodm:PreferredTerm>Milliliter per Hour per Microgram per Day</nciodm:PreferredTerm>
                </EnumeratedItem>
                <EnumeratedItem CodedValue="(mL/h)/(ug/kg)" nciodm:ExtCodeID="C120783">
                    <nciodm:CDISCDefinition>Milliliters per hour (flow rate), divided by micrograms per kilogram (dose normalized by body weight).</nciodm:CDISCDefinition>
                    <nciodm:PreferredTerm>Milliliter per Hour per Microgram per Kilogram</nciodm:PreferredTerm>
                </EnumeratedItem>
                <EnumeratedItem CodedValue="(mL/h)/(ug/kg/day)" nciodm:ExtCodeID="C120784">
                    <nciodm:CDISCDefinition>Milliliters per hour (flow rate), divided by micrograms per kilogram per day (daily dose normalized by body weight).</nciodm:CDISCDefinition>
                    <nciodm:PreferredTerm>Milliliter per Hour per Microgram per Kilogram per Day</nciodm:PreferredTerm>
                </EnumeratedItem>
                <EnumeratedItem CodedValue="(mL/h)/(ug/m2)" nciodm:ExtCodeID="C120785">
                    <nciodm:CDISCDefinition>Milliliters per hour (flow rate), divided by micrograms per meter squared (dose normalized by surface area).</nciodm:CDISCDefinition>
                    <nciodm:PreferredTerm>Milliliter per Hour per Microgram per Meter Squared</nciodm:PreferredTerm>
                </EnumeratedItem>
                <EnumeratedItem CodedValue="(mL/h)/(ug/m2/day)" nciodm:ExtCodeID="C120786">
                    <nciodm:CDISCDefinition>Milliliters per hour (flow rate), divided by micrograms per meter squared per day (daily dose normalized by surface area).</nciodm:CDISCDefinition>
                    <nciodm:PreferredTerm>Milliliter per Hour per Microgram per Meter Squared per Day</nciodm:PreferredTerm>
                </EnumeratedItem>
                <EnumeratedItem CodedValue="(mL/h)/g" nciodm:ExtCodeID="C120787">
                    <nciodm:CDISCDefinition>Milliliters per hour (flow rate), divided by grams (weight).</nciodm:CDISCDefinition>
                    <nciodm:PreferredTerm>Milliliter per Hour per Gram</nciodm:PreferredTerm>
                </EnumeratedItem>
                <EnumeratedItem CodedValue="(mL/h)/m2" nciodm:ExtCodeID="C120788">
                    <nciodm:CDISCDefinition>Milliliters per hour (flow rate), divided by meters squared (surface area).</nciodm:CDISCDefinition>
                    <nciodm:PreferredTerm>Milliliter per Hour per Meter Squared</nciodm:PreferredTerm>
                </EnumeratedItem>
                <EnumeratedItem CodedValue="(mL/h)/mg" nciodm:ExtCodeID="C120789">
                    <nciodm:CDISCDefinition>Milliliters per hour (flow rate), divided by milligrams (dose).</nciodm:CDISCDefinition>
                    <nciodm:PreferredTerm>Milliliter per Hour per Milligram</nciodm:PreferredTerm>
                </EnumeratedItem>
                <EnumeratedItem CodedValue="(mL/h)/ug" nciodm:ExtCodeID="C120790">
                    <nciodm:CDISCDefinition>Milliliters per hour (flow rate), divided by micrograms (dose).</nciodm:CDISCDefinition>
                    <nciodm:PreferredTerm>Milliliter per Hour per Microgram</nciodm:PreferredTerm>
                </EnumeratedItem>
                <EnumeratedItem CodedValue="(mL/min)/(kg/m2)" nciodm:ExtCodeID="C120791">
                    <nciodm:CDISCDefinition>Milliliters per minute (flow rate), divided by kilograms per meter squared (body mass index).</nciodm:CDISCDefinition>
                    <nciodm:PreferredTerm>Milliliter per Minute per Kilogram per Meter Squared</nciodm:PreferredTerm>
                </EnumeratedItem>
                <EnumeratedItem CodedValue="(mL/min)/(mg/day)" nciodm:ExtCodeID="C120792">
                    <nciodm:CDISCDefinition>Milliliters per minute (flow rate), divided by milligrams per day (daily dose).</nciodm:CDISCDefinition>
                    <nciodm:PreferredTerm>Milliliter per Minute per Milligram per Day</nciodm:PreferredTerm>
                </EnumeratedItem>
                <EnumeratedItem CodedValue="(mL/min)/(mg/kg)" nciodm:ExtCodeID="C120793">
                    <nciodm:CDISCDefinition>Milliliters per minute (flow rate), divided by milligrams per kilogram (dose normalized by body weight).</nciodm:CDISCDefinition>
                    <nciodm:PreferredTerm>Milliliter per Minute per Milligram per Kilogram</nciodm:PreferredTerm>
                </EnumeratedItem>
                <EnumeratedItem CodedValue="(mL/min)/(mg/kg/day)" nciodm:ExtCodeID="C120794">
                    <nciodm:CDISCDefinition>Milliliters per minute (flow rate), divided by milligrams per kilogram per day (daily dose normalized by body weight).</nciodm:CDISCDefinition>
                    <nciodm:PreferredTerm>Milliliter per Minute per Milligram per Kilogram per Day</nciodm:PreferredTerm>
                </EnumeratedItem>
                <EnumeratedItem CodedValue="(mL/min)/(mg/m2)" nciodm:ExtCodeID="C120795">
                    <nciodm:CDISCDefinition>Milliliters per minute (flow rate), divided by milligrams per meter squared (dose normalized by surface area).</nciodm:CDISCDefinition>
                    <nciodm:PreferredTerm>Milliliter per Minute per Milligram per Meter Squared</nciodm:PreferredTerm>
                </EnumeratedItem>
                <EnumeratedItem CodedValue="(mL/min)/(mg/m2/day)" nciodm:ExtCodeID="C120796">
                    <nciodm:CDISCDefinition>Milliliters per minute (flow rate), divided by milligrams per meter squared per day (daily dose normalized by surface area).</nciodm:CDISCDefinition>
                    <nciodm:PreferredTerm>Milliliter per Minute per Milligram per Meter Squared per Day</nciodm:PreferredTerm>
                </EnumeratedItem>
                <EnumeratedItem CodedValue="(mL/min)/(ug/day)" nciodm:ExtCodeID="C120797">
                    <nciodm:CDISCDefinition>Milliliters per minute (flow rate), divided by micrograms per day (daily dose).</nciodm:CDISCDefinition>
                    <nciodm:PreferredTerm>Milliliter per Minute per Microgram per Day</nciodm:PreferredTerm>
                </EnumeratedItem>
                <EnumeratedItem CodedValue="(mL/min)/(ug/kg)" nciodm:ExtCodeID="C120798">
                    <nciodm:CDISCDefinition>Milliliters per minute (flow rate), divided by micrograms per kilogram (dose normalized by body weight).</nciodm:CDISCDefinition>
                    <nciodm:PreferredTerm>Milliliter per Minute per Microgram per Kilogram</nciodm:PreferredTerm>
                </EnumeratedItem>
                <EnumeratedItem CodedValue="(mL/min)/(ug/kg/day)" nciodm:ExtCodeID="C120799">
                    <nciodm:CDISCDefinition>Milliliters per minute (flow rate), divided by micrograms per kilogram per day (daily dose normalized by body weight).</nciodm:CDISCDefinition>
                    <nciodm:PreferredTerm>Milliliter per Minute per Microgram per Kilogram per Day</nciodm:PreferredTerm>
                </EnumeratedItem>
                <EnumeratedItem CodedValue="(mL/min)/(ug/m2)" nciodm:ExtCodeID="C120800">
                    <nciodm:CDISCDefinition>Milliliters per minute (flow rate), divided by micrograms per meter squared (dose normalized by surface area).</nciodm:CDISCDefinition>
                    <nciodm:PreferredTerm>Milliliter per Minute per Microgram per Meter Squared</nciodm:PreferredTerm>
                </EnumeratedItem>
                <EnumeratedItem CodedValue="(mL/min)/(ug/m2/day)" nciodm:ExtCodeID="C120801">
                    <nciodm:CDISCDefinition>Milliliters per minute (flow rate), divided by micrograms per meter squared per day (daily dose normalized by surface area).</nciodm:CDISCDefinition>
                    <nciodm:PreferredTerm>Milliliter per Minute per Microgram per Meter Squared per Day</nciodm:PreferredTerm>
                </EnumeratedItem>
                <EnumeratedItem CodedValue="(mL/min)/g" nciodm:ExtCodeID="C120802">
                    <nciodm:CDISCDefinition>Milliliters per minute (flow rate), divided by grams (weight).</nciodm:CDISCDefinition>
                    <nciodm:PreferredTerm>Milliliter per Minute per Gram</nciodm:PreferredTerm>
                </EnumeratedItem>
                <EnumeratedItem CodedValue="(mL/min)/m2" nciodm:ExtCodeID="C120803">
                    <nciodm:CDISCDefinition>Milliliters per minute (flow rate), divided by meters squared (surface area).</nciodm:CDISCDefinition>
                    <nciodm:PreferredTerm>Milliliter per Minute per Meter Squared</nciodm:PreferredTerm>
                </EnumeratedItem>
                <EnumeratedItem CodedValue="(mL/min)/mg" nciodm:ExtCodeID="C120804">
                    <nciodm:CDISCDefinition>Milliliters per minute (flow rate), divided by milligrams (dose).</nciodm:CDISCDefinition>
                    <nciodm:PreferredTerm>Milliliter per Minute per Milligram</nciodm:PreferredTerm>
                </EnumeratedItem>
                <EnumeratedItem CodedValue="(mL/min)/ug" nciodm:ExtCodeID="C120805">
                    <nciodm:CDISCDefinition>Milliliters per minute (flow rate), divided by micrograms (dose).</nciodm:CDISCDefinition>
                    <nciodm:PreferredTerm>Milliliter per Minute per Microgram</nciodm:PreferredTerm>
                </EnumeratedItem>
                <EnumeratedItem CodedValue="/day" nciodm:ExtCodeID="C25473">
                    <nciodm:CDISCSynonym>Daily</nciodm:CDISCSynonym>
                    <nciodm:CDISCSynonym>Per Day</nciodm:CDISCSynonym>
                    <nciodm:CDISCDefinition>A rate of occurrence within a period of time equal to one day.</nciodm:CDISCDefinition>
                    <nciodm:PreferredTerm>Daily</nciodm:PreferredTerm>
                </EnumeratedItem>
                <EnumeratedItem CodedValue="/h" nciodm:ExtCodeID="C66966">
                    <nciodm:CDISCSynonym>Per Hour</nciodm:CDISCSynonym>
                    <nciodm:CDISCDefinition>A rate of occurrences within a period of time equal to one hour.</nciodm:CDISCDefinition>
                    <nciodm:PreferredTerm>Per Hour</nciodm:PreferredTerm>
                </EnumeratedItem>
                <EnumeratedItem CodedValue="day" nciodm:ExtCodeID="C25301">
                    <nciodm:CDISCSynonym>Day</nciodm:CDISCSynonym>
                    <nciodm:CDISCDefinition>The time for Earth to make a complete rotation on its axis; ordinarily divided into twenty-four hours. This also refers to a specific day. (NCI)</nciodm:CDISCDefinition>
                    <nciodm:PreferredTerm>Day</nciodm:PreferredTerm>
                </EnumeratedItem>
                <EnumeratedItem CodedValue="day*fg/mL" nciodm:ExtCodeID="C85583">
                    <nciodm:CDISCDefinition>Days times femtograms per milliliter (area under the curve).</nciodm:CDISCDefinition>
                    <nciodm:PreferredTerm>Day Times Femtogram per Milliliter</nciodm:PreferredTerm>
                </EnumeratedItem>
                <EnumeratedItem CodedValue="day*fg/mL/(kg/m2)" nciodm:ExtCodeID="C111167">
                    <nciodm:CDISCDefinition>Days times femtograms per milliliter (area under the curve), divided by kilograms per meter squared (body mass index).</nciodm:CDISCDefinition>
                    <nciodm:PreferredTerm>Day Times Femtogram per Milliliter per Kilogram per Meter Squared</nciodm:PreferredTerm>
                </EnumeratedItem>
                <EnumeratedItem CodedValue="day*fg/mL/(mg/g)" nciodm:ExtCodeID="C117894">
                    <nciodm:CDISCDefinition>Days times femtograms per milliliter (area under the curve), divided by milligrams per gram (dose normalized by body weight).</nciodm:CDISCDefinition>
                    <nciodm:PreferredTerm>Day Times Femtogram Per Milliliter Per Milligram Per Gram</nciodm:PreferredTerm>
                </EnumeratedItem>
                <EnumeratedItem CodedValue="day*fg/mL/(mg/g/day)" nciodm:ExtCodeID="C117895">
                    <nciodm:CDISCDefinition>Days times femtograms per milliliter (area under the curve), divided by milligrams per gram per day (daily dose normalized by body weight).</nciodm:CDISCDefinition>
                    <nciodm:PreferredTerm>Day Times Femtogram Per Milliliter Per Milligram Per Gram Per Day</nciodm:PreferredTerm>
                </EnumeratedItem>
                <EnumeratedItem CodedValue="day*fg/mL/g" nciodm:ExtCodeID="C112244">
                    <nciodm:CDISCDefinition>Days times femtograms per milliliter (area under the curve), divided by grams (weight).</nciodm:CDISCDefinition>
                    <nciodm:PreferredTerm>Day Times Femtogram Per Milliliter Per Gram</nciodm:PreferredTerm>
                </EnumeratedItem>
                <EnumeratedItem CodedValue="day*fg/mL/kg" nciodm:ExtCodeID="C112245">
                    <nciodm:CDISCDefinition>Days times femtograms per milliliter (area under the curve), divided by kilograms (weight).</nciodm:CDISCDefinition>
                    <nciodm:PreferredTerm>Day Times Femtogram Per Milliliter Per Kilogram</nciodm:PreferredTerm>
                </EnumeratedItem>
                <EnumeratedItem CodedValue="day*fg/mL/m2" nciodm:ExtCodeID="C111168">
                    <nciodm:CDISCDefinition>Days times femtograms per milliliter (area under the curve), divided by meters squared (surface area).</nciodm:CDISCDefinition>
                    <nciodm:PreferredTerm>Day Times Femtogram per Milliliter per Meter Squared</nciodm:PreferredTerm>
                </EnumeratedItem>
                <EnumeratedItem CodedValue="day*g/mL" nciodm:ExtCodeID="C85584">
                    <nciodm:CDISCDefinition>Days times grams per milliliter (area under the curve).</nciodm:CDISCDefinition>
                    <nciodm:PreferredTerm>Day Times Gram per Milliliter</nciodm:PreferredTerm>
                </EnumeratedItem>
                <EnumeratedItem CodedValue="day*g/mL/(kg/m2)" nciodm:ExtCodeID="C111169">
                    <nciodm:CDISCDefinition>Days times grams per milliliter (area under the curve), divided by kilograms per meter squared (body mass index).</nciodm:CDISCDefinition>
                    <nciodm:PreferredTerm>Day Times Gram per Milliliter per Kilogram per Meter Squared</nciodm:PreferredTerm>
                </EnumeratedItem>
                <EnumeratedItem CodedValue="day*g/mL/(mg/g)" nciodm:ExtCodeID="C117896">
                    <nciodm:CDISCDefinition>Days times grams per milliliter (area under the curve), divided by milligrams per gram (dose normalized by body weight).</nciodm:CDISCDefinition>
                    <nciodm:PreferredTerm>Day Times gram Per Milliliter Per Milligram Per Gram</nciodm:PreferredTerm>
                </EnumeratedItem>
                <EnumeratedItem CodedValue="day*g/mL/(mg/g/day)" nciodm:ExtCodeID="C117897">
                    <nciodm:CDISCDefinition>Days times grams per milliliter (area under the curve), divided by milligrams per gram per day (daily dose normalized by body weight).</nciodm:CDISCDefinition>
                    <nciodm:PreferredTerm>Day Times gram Per Milliliter Per Milligram Per Gram Per Day</nciodm:PreferredTerm>
                </EnumeratedItem>
                <EnumeratedItem CodedValue="day*g/mL/g" nciodm:ExtCodeID="C112246">
                    <nciodm:CDISCDefinition>Days times grams per milliliter (area under the curve), divided by grams (weight).</nciodm:CDISCDefinition>
                    <nciodm:PreferredTerm>Day Times Gram Per Milliliter Per Gram</nciodm:PreferredTerm>
                </EnumeratedItem>
                <EnumeratedItem CodedValue="day*g/mL/kg" nciodm:ExtCodeID="C112247">
                    <nciodm:CDISCDefinition>Days times grams per milliliter (area under the curve), divided by kilograms (weight).</nciodm:CDISCDefinition>
                    <nciodm:PreferredTerm>Day Times Gram Per Milliliter Per Kilogram</nciodm:PreferredTerm>
                </EnumeratedItem>
                <EnumeratedItem CodedValue="day*g/mL/m2" nciodm:ExtCodeID="C111170">
                    <nciodm:CDISCDefinition>Days times grams per milliliter (area under the curve), divided by meters squared (surface area).</nciodm:CDISCDefinition>
                    <nciodm:PreferredTerm>Day Times Gram per Milliliter per Meter Squared</nciodm:PreferredTerm>
                </EnumeratedItem>
                <EnumeratedItem CodedValue="day*mg/mL" nciodm:ExtCodeID="C85588">
                    <nciodm:CDISCDefinition>Days times milligrams per milliliter (area under the curve).</nciodm:CDISCDefinition>
                    <nciodm:PreferredTerm>Day Times Milligram per Milliliter</nciodm:PreferredTerm>
                </EnumeratedItem>
                <EnumeratedItem CodedValue="day*mg/mL/(kg/m2)" nciodm:ExtCodeID="C111175">
                    <nciodm:CDISCDefinition>Days times milligrams per milliliter (area under the curve), divided by kilograms per meter squared (body mass index).</nciodm:CDISCDefinition>
                    <nciodm:PreferredTerm>Day Times Milligram per Milliliter per Kilogram per Meter Squared</nciodm:PreferredTerm>
                </EnumeratedItem>
                <EnumeratedItem CodedValue="day*mg/mL/(mg/g)" nciodm:ExtCodeID="C117898">
                    <nciodm:CDISCDefinition>Days times milligrams per milliliter (area under the curve), divided by milligrams per gram (dose normalized by body weight).</nciodm:CDISCDefinition>
                    <nciodm:PreferredTerm>Day Times Milligram Per Milliliter Per Milligram Per Gram</nciodm:PreferredTerm>
                </EnumeratedItem>
                <EnumeratedItem CodedValue="day*mg/mL/(mg/g/day)" nciodm:ExtCodeID="C117899">
                    <nciodm:CDISCDefinition>Days times milligrams per milliliter (area under the curve), divided by milligrams per gram per day (daily dose normalized by body weight).</nciodm:CDISCDefinition>
                    <nciodm:PreferredTerm>Day Times Milligram Per Milliliter Per Milligram Per Gram Per Day</nciodm:PreferredTerm>
                </EnumeratedItem>
                <EnumeratedItem CodedValue="day*mg/mL/g" nciodm:ExtCodeID="C112252">
                    <nciodm:CDISCDefinition>Days times milligrams per milliliter (area under the curve), divided by grams (weight).</nciodm:CDISCDefinition>
                    <nciodm:PreferredTerm>Day Times Milligram Per Milliliter Per Gram</nciodm:PreferredTerm>
                </EnumeratedItem>
                <EnumeratedItem CodedValue="day*mg/mL/kg" nciodm:ExtCodeID="C112253">
                    <nciodm:CDISCDefinition>Days times milligrams per milliliter (area under the curve), divided by kilograms (weight).</nciodm:CDISCDefinition>
                    <nciodm:PreferredTerm>Day Times Milligram Per Milliliter Per Kilogram</nciodm:PreferredTerm>
                </EnumeratedItem>
                <EnumeratedItem CodedValue="day*mg/mL/m2" nciodm:ExtCodeID="C111176">
                    <nciodm:CDISCDefinition>Days times milligrams per milliliter (area under the curve), divided by meters squared (surface area).</nciodm:CDISCDefinition>
                    <nciodm:PreferredTerm>Day Times Milligram per Milliliter per Meter Squared</nciodm:PreferredTerm>
                </EnumeratedItem>
                <EnumeratedItem CodedValue="day*mmol/L" nciodm:ExtCodeID="C85587">
                    <nciodm:CDISCDefinition>Days times millimoles per liter (area under the curve).</nciodm:CDISCDefinition>
                    <nciodm:PreferredTerm>Day Times Micromole per Milliliter</nciodm:PreferredTerm>
                </EnumeratedItem>
                <EnumeratedItem CodedValue="day*mmol/L/(kg/m2)" nciodm:ExtCodeID="C111177">
                    <nciodm:CDISCDefinition>Days times millimoles per liter (area under the curve), divided by kilograms per meter squared (body mass index).</nciodm:CDISCDefinition>
                    <nciodm:PreferredTerm>Day Times Millimole per Liter per Kilogram per Meter Squared</nciodm:PreferredTerm>
                </EnumeratedItem>
                <EnumeratedItem CodedValue="day*mmol/L/(mg/g)" nciodm:ExtCodeID="C117900">
                    <nciodm:CDISCDefinition>Days times millimoles per liter (area under the curve), divided by milligrams per gram (dose normalized by body weight).</nciodm:CDISCDefinition>
                    <nciodm:PreferredTerm>Day Times Millimole Per Liter Per Milligram Per Gram</nciodm:PreferredTerm>
                </EnumeratedItem>
                <EnumeratedItem CodedValue="day*mmol/L/(mg/g/day)" nciodm:ExtCodeID="C117901">
                    <nciodm:CDISCDefinition>Days times millimoles per liter (area under the curve), divided by milligrams per gram per day (daily dose normalized by body weight).</nciodm:CDISCDefinition>
                    <nciodm:PreferredTerm>Day Times Millimole Per Liter Per Milligram Per Gram Per Day</nciodm:PreferredTerm>
                </EnumeratedItem>
                <EnumeratedItem CodedValue="day*mmol/L/g" nciodm:ExtCodeID="C112254">
                    <nciodm:CDISCDefinition>Days times millimoles per liter (area under the curve), divided by grams (weight).</nciodm:CDISCDefinition>
                    <nciodm:PreferredTerm>Day Times Millimole Per Liter Per Gram</nciodm:PreferredTerm>
                </EnumeratedItem>
                <EnumeratedItem CodedValue="day*mmol/L/kg" nciodm:ExtCodeID="C112255">
                    <nciodm:CDISCDefinition>Days times millimoles per liter (area under the curve), divided by kilograms (weight).</nciodm:CDISCDefinition>
                    <nciodm:PreferredTerm>Day Times Millimole Per Liter Per Kilogram</nciodm:PreferredTerm>
                </EnumeratedItem>
                <EnumeratedItem CodedValue="day*mmol/L/m2" nciodm:ExtCodeID="C111178">
                    <nciodm:CDISCDefinition>Days times millimoles per liter (area under the curve), divided by meters squared (surface area).</nciodm:CDISCDefinition>
                    <nciodm:PreferredTerm>Day Times Millimole per Liter per Meter Squared</nciodm:PreferredTerm>
                </EnumeratedItem>
                <EnumeratedItem CodedValue="day*mol/L" nciodm:ExtCodeID="C85589">
                    <nciodm:CDISCDefinition>Days times moles per liter (area under the curve).</nciodm:CDISCDefinition>
                    <nciodm:PreferredTerm>Day Times Millimole per Milliliter</nciodm:PreferredTerm>
                </EnumeratedItem>
                <EnumeratedItem CodedValue="day*mol/L/(kg/m2)" nciodm:ExtCodeID="C111179">
                    <nciodm:CDISCDefinition>Days times moles per liter (area under the curve), divided by kilograms per meter squared (body mass index).</nciodm:CDISCDefinition>
                    <nciodm:PreferredTerm>Day Times Mole per Liter per Kilogram per Meter Squared</nciodm:PreferredTerm>
                </EnumeratedItem>
                <EnumeratedItem CodedValue="day*mol/L/(mg/g)" nciodm:ExtCodeID="C117902">
                    <nciodm:CDISCDefinition>Days times moles per liter (area under the curve), divided by milligrams per gram (dose normalized by body weight).</nciodm:CDISCDefinition>
                    <nciodm:PreferredTerm>Day Times mole Per Liter Per Milligram Per Gram</nciodm:PreferredTerm>
                </EnumeratedItem>
                <EnumeratedItem CodedValue="day*mol/L/(mg/g/day)" nciodm:ExtCodeID="C117903">
                    <nciodm:CDISCDefinition>Days times moles per liter (area under the curve), divided by milligrams per gram per day (daily dose normalized by body weight).</nciodm:CDISCDefinition>
                    <nciodm:PreferredTerm>Day Times mole Per Liter Per Milligram Per Gram Per Day</nciodm:PreferredTerm>
                </EnumeratedItem>
                <EnumeratedItem CodedValue="day*mol/L/g" nciodm:ExtCodeID="C112256">
                    <nciodm:CDISCDefinition>Days times moles per liter (area under the curve), divided by grams (weight).</nciodm:CDISCDefinition>
                    <nciodm:PreferredTerm>Day Times Mole Per Liter Per Gram</nciodm:PreferredTerm>
                </EnumeratedItem>
                <EnumeratedItem CodedValue="day*mol/L/kg" nciodm:ExtCodeID="C112257">
                    <nciodm:CDISCDefinition>Days times moles per liter (area under the curve), divided by kilograms (weight).</nciodm:CDISCDefinition>
                    <nciodm:PreferredTerm>Day Times Mole Per Liter Per Kilogram</nciodm:PreferredTerm>
                </EnumeratedItem>
                <EnumeratedItem CodedValue="day*mol/L/m2" nciodm:ExtCodeID="C111180">
                    <nciodm:CDISCDefinition>Days times moles per liter (area under the curve), divided by meters squared (surface area).</nciodm:CDISCDefinition>
                    <nciodm:PreferredTerm>Day Times Mole per Liter per Meter Squared</nciodm:PreferredTerm>
                </EnumeratedItem>
                <EnumeratedItem CodedValue="day*ng/mL" nciodm:ExtCodeID="C85591">
                    <nciodm:CDISCDefinition>Days times nanograms per milliliter (area under the curve).</nciodm:CDISCDefinition>
                    <nciodm:PreferredTerm>Day Times Nanogram per Milliliter</nciodm:PreferredTerm>
                </EnumeratedItem>
                <EnumeratedItem CodedValue="day*ng/mL/(kg/m2)" nciodm:ExtCodeID="C111181">
                    <nciodm:CDISCDefinition>Days times nanograms per milliliter (area under the curve), divided by kilograms per meter squared (body mass index).</nciodm:CDISCDefinition>
                    <nciodm:PreferredTerm>Day Times Nanogram per Milliliter per Kilogram per Meter Squared</nciodm:PreferredTerm>
                </EnumeratedItem>
                <EnumeratedItem CodedValue="day*ng/mL/(mg/g)" nciodm:ExtCodeID="C117904">
                    <nciodm:CDISCDefinition>Days times nanograms per milliliter (area under the curve), divided by milligrams per gram (dose normalized by body weight).</nciodm:CDISCDefinition>
                    <nciodm:PreferredTerm>Day Times Nanogram Per Milliliter Per Milligram Per Gram</nciodm:PreferredTerm>
                </EnumeratedItem>
                <EnumeratedItem CodedValue="day*ng/mL/(mg/g/day)" nciodm:ExtCodeID="C117905">
                    <nciodm:CDISCDefinition>Days times nanograms per milliliter (area under the curve), divided by milligrams per gram per day (daily dose normalized by body weight).</nciodm:CDISCDefinition>
                    <nciodm:PreferredTerm>Day Times Nanogram Per Milliliter Per Milligram Per Gram Per Day</nciodm:PreferredTerm>
                </EnumeratedItem>
                <EnumeratedItem CodedValue="day*ng/mL/g" nciodm:ExtCodeID="C112258">
                    <nciodm:CDISCDefinition>Days times nanograms per milliliter (area under the curve), divided by grams (weight).</nciodm:CDISCDefinition>
                    <nciodm:PreferredTerm>Day Times Nanogram Per Milliliter Per Gram</nciodm:PreferredTerm>
                </EnumeratedItem>
                <EnumeratedItem CodedValue="day*ng/mL/kg" nciodm:ExtCodeID="C112259">
                    <nciodm:CDISCDefinition>Days times nanograms per milliliter (area under the curve), divided by kilograms (weight).</nciodm:CDISCDefinition>
                    <nciodm:PreferredTerm>Day Times Nanogram Per Milliliter Per Kilogram</nciodm:PreferredTerm>
                </EnumeratedItem>
                <EnumeratedItem CodedValue="day*ng/mL/m2" nciodm:ExtCodeID="C111182">
                    <nciodm:CDISCDefinition>Days times nanograms per milliliter (area under the curve), divided by meters squared (surface area).</nciodm:CDISCDefinition>
                    <nciodm:PreferredTerm>Day Times Nanogram per Milliliter per Meter Squared</nciodm:PreferredTerm>
                </EnumeratedItem>
                <EnumeratedItem CodedValue="day*nmol/L" nciodm:ExtCodeID="C85594">
                    <nciodm:CDISCDefinition>Days times nanomoles per liter (area under the curve).</nciodm:CDISCDefinition>
                    <nciodm:PreferredTerm>Day Times Picomole per Milliliter</nciodm:PreferredTerm>
                </EnumeratedItem>
                <EnumeratedItem CodedValue="day*nmol/L/(kg/m2)" nciodm:ExtCodeID="C111183">
                    <nciodm:CDISCDefinition>Days times nanomoles per liter (area under the curve), divided by kilograms per meter squared (body mass index).</nciodm:CDISCDefinition>
                    <nciodm:PreferredTerm>Day Times Nanomole per Liter per Kilogram per Meter Squared</nciodm:PreferredTerm>
                </EnumeratedItem>
                <EnumeratedItem CodedValue="day*nmol/L/(mg/g)" nciodm:ExtCodeID="C117906">
                    <nciodm:CDISCDefinition>Days times nanomoles per liter (area under the curve), divided by milligrams per gram (dose normalized by body weight).</nciodm:CDISCDefinition>
                    <nciodm:PreferredTerm>Day Times Nanomole Per Liter Per Milligram Per Gram</nciodm:PreferredTerm>
                </EnumeratedItem>
                <EnumeratedItem CodedValue="day*nmol/L/(mg/g/day)" nciodm:ExtCodeID="C117907">
                    <nciodm:CDISCDefinition>Days times nanomoles per liter (area under the curve), divided by milligrams per gram per day (daily dose normalized by body weight).</nciodm:CDISCDefinition>
                    <nciodm:PreferredTerm>Day Times Nanomole Per Liter Per Milligram Per Gram Per Day</nciodm:PreferredTerm>
                </EnumeratedItem>
                <EnumeratedItem CodedValue="day*nmol/L/g" nciodm:ExtCodeID="C112260">
                    <nciodm:CDISCDefinition>Days times nanomoles per liter (area under the curve), divided by grams (weight).</nciodm:CDISCDefinition>
                    <nciodm:PreferredTerm>Day Times Nanomole Per Liter Per Gram</nciodm:PreferredTerm>
                </EnumeratedItem>
                <EnumeratedItem CodedValue="day*nmol/L/kg" nciodm:ExtCodeID="C112261">
                    <nciodm:CDISCDefinition>Days times nanomoles per liter (area under the curve), divided by kilograms (weight).</nciodm:CDISCDefinition>
                    <nciodm:PreferredTerm>Day Times Nanomole Per Liter Per Kilogram</nciodm:PreferredTerm>
                </EnumeratedItem>
                <EnumeratedItem CodedValue="day*nmol/L/m2" nciodm:ExtCodeID="C111184">
                    <nciodm:CDISCDefinition>Days times nanomoles per liter (area under the curve), divided by meters squared (surface area).</nciodm:CDISCDefinition>
                    <nciodm:PreferredTerm>Day Times Nanomole per Liter per Meter Squared</nciodm:PreferredTerm>
                </EnumeratedItem>
                <EnumeratedItem CodedValue="day*pg/mL" nciodm:ExtCodeID="C85593">
                    <nciodm:CDISCDefinition>Days times picograms per milliliter (area under the curve).</nciodm:CDISCDefinition>
                    <nciodm:PreferredTerm>Day Times Picogram per Milliliter</nciodm:PreferredTerm>
                </EnumeratedItem>
                <EnumeratedItem CodedValue="day*pg/mL/(kg/m2)" nciodm:ExtCodeID="C111185">
                    <nciodm:CDISCDefinition>Days times picograms per milliliter (area under the curve), divided by kilograms per meter squared (body mass index).</nciodm:CDISCDefinition>
                    <nciodm:PreferredTerm>Day Times Picogram per Milliliter per Kilogram per Meter Squared</nciodm:PreferredTerm>
                </EnumeratedItem>
                <EnumeratedItem CodedValue="day*pg/mL/(mg/g)" nciodm:ExtCodeID="C117908">
                    <nciodm:CDISCDefinition>Days times picograms per milliliter (area under the curve), divided by milligrams per gram (dose normalized by body weight).</nciodm:CDISCDefinition>
                    <nciodm:PreferredTerm>Day Times Picogram Per Milliliter Per Milligram Per Gram</nciodm:PreferredTerm>
                </EnumeratedItem>
                <EnumeratedItem CodedValue="day*pg/mL/(mg/g/day)" nciodm:ExtCodeID="C117909">
                    <nciodm:CDISCDefinition>Days times picograms per milliliter (area under the curve), divided by milligrams per gram per day (daily dose normalized by body weight).</nciodm:CDISCDefinition>
                    <nciodm:PreferredTerm>Day Times Picogram Per Milliliter Per Milligram Per Gram Per Day</nciodm:PreferredTerm>
                </EnumeratedItem>
                <EnumeratedItem CodedValue="day*pg/mL/g" nciodm:ExtCodeID="C112262">
                    <nciodm:CDISCDefinition>Days times picograms per milliliter (area under the curve), divided by grams (weight).</nciodm:CDISCDefinition>
                    <nciodm:PreferredTerm>Day Times Picogram Per Milliliter Per Gram</nciodm:PreferredTerm>
                </EnumeratedItem>
                <EnumeratedItem CodedValue="day*pg/mL/kg" nciodm:ExtCodeID="C112263">
                    <nciodm:CDISCDefinition>Days times picograms per milliliter (area under the curve), divided by kilograms (weight).</nciodm:CDISCDefinition>
                    <nciodm:PreferredTerm>Day Times Picogram Per Milliliter Per Kilogram</nciodm:PreferredTerm>
                </EnumeratedItem>
                <EnumeratedItem CodedValue="day*pg/mL/m2" nciodm:ExtCodeID="C111186">
                    <nciodm:CDISCDefinition>Days times picograms per milliliter (area under the curve), divided by meters squared (surface area).</nciodm:CDISCDefinition>
                    <nciodm:PreferredTerm>Day Times Picogram per Milliliter per Meter Squared</nciodm:PreferredTerm>
                </EnumeratedItem>
                <EnumeratedItem CodedValue="day*pmol/L" nciodm:ExtCodeID="C111187">
                    <nciodm:CDISCDefinition>Days times picomoles per liter (area under the curve).</nciodm:CDISCDefinition>
                    <nciodm:PreferredTerm>Day Times Picomole per Liter</nciodm:PreferredTerm>
                </EnumeratedItem>
                <EnumeratedItem CodedValue="day*pmol/L/(kg/m2)" nciodm:ExtCodeID="C111188">
                    <nciodm:CDISCDefinition>Days times picomoles per liter (area under the curve), divided by kilograms per meter squared (body mass index).</nciodm:CDISCDefinition>
                    <nciodm:PreferredTerm>Day Times Picomole per Liter per Kilogram per Meter Squared</nciodm:PreferredTerm>
                </EnumeratedItem>
                <EnumeratedItem CodedValue="day*pmol/L/(mg/g)" nciodm:ExtCodeID="C117910">
                    <nciodm:CDISCDefinition>Days times picomoles per liter (area under the curve), divided by milligrams per gram (dose normalized by body weight).</nciodm:CDISCDefinition>
                    <nciodm:PreferredTerm>Day Times Picomole Per Liter Per Milligram Per Gram</nciodm:PreferredTerm>
                </EnumeratedItem>
                <EnumeratedItem CodedValue="day*pmol/L/(mg/g/day)" nciodm:ExtCodeID="C117911">
                    <nciodm:CDISCDefinition>Days times picomoles per liter (area under the curve), divided by milligrams per gram per day (daily dose normalized by body weight).</nciodm:CDISCDefinition>
                    <nciodm:PreferredTerm>Day Times Picomole Per Liter Per Milligram Per Gram Per Day</nciodm:PreferredTerm>
                </EnumeratedItem>
                <EnumeratedItem CodedValue="day*pmol/L/g" nciodm:ExtCodeID="C112264">
                    <nciodm:CDISCDefinition>Days times picomoles per liter (area under the curve), divided by grams (weight).</nciodm:CDISCDefinition>
                    <nciodm:PreferredTerm>Day Times Picomole Per Liter Per Gram</nciodm:PreferredTerm>
                </EnumeratedItem>
                <EnumeratedItem CodedValue="day*pmol/L/kg" nciodm:ExtCodeID="C112265">
                    <nciodm:CDISCDefinition>Days times picomoles per liter (area under the curve), divided by kilograms (weight).</nciodm:CDISCDefinition>
                    <nciodm:PreferredTerm>Day Times Picomole Per Liter Per Kilogram</nciodm:PreferredTerm>
                </EnumeratedItem>
                <EnumeratedItem CodedValue="day*pmol/L/m2" nciodm:ExtCodeID="C111189">
                    <nciodm:CDISCDefinition>Days times picomoles per liter (area under the curve), divided by meters squared (surface area).</nciodm:CDISCDefinition>
                    <nciodm:PreferredTerm>Day Times Picomole per Liter per Meter Squared</nciodm:PreferredTerm>
                </EnumeratedItem>
                <EnumeratedItem CodedValue="day*ug/mL" nciodm:ExtCodeID="C85586">
                    <nciodm:CDISCDefinition>Days times micrograms per milliliter (area under the curve).</nciodm:CDISCDefinition>
                    <nciodm:PreferredTerm>Day Times Microgram per Milliliter</nciodm:PreferredTerm>
                </EnumeratedItem>
                <EnumeratedItem CodedValue="day*ug/mL/(kg/m2)" nciodm:ExtCodeID="C111171">
                    <nciodm:CDISCDefinition>Days times micrograms per milliliter (area under the curve), divided by kilograms per meter squared (body mass index).</nciodm:CDISCDefinition>
                    <nciodm:PreferredTerm>Day Times Microgram per Milliliter per Kilogram per Meter Squared</nciodm:PreferredTerm>
                </EnumeratedItem>
                <EnumeratedItem CodedValue="day*ug/mL/(mg/g)" nciodm:ExtCodeID="C117912">
                    <nciodm:CDISCDefinition>Days times micrograms per milliliter (area under the curve), divided by milligrams per gram (dose normalized by body weight).</nciodm:CDISCDefinition>
                    <nciodm:PreferredTerm>Day Times Microgram Per Milliliter Per Milligram Per Gram</nciodm:PreferredTerm>
                </EnumeratedItem>
                <EnumeratedItem CodedValue="day*ug/mL/(mg/g/day)" nciodm:ExtCodeID="C117913">
                    <nciodm:CDISCDefinition>Days times micrograms per milliliter (area under the curve), divided by milligrams per gram per day (daily dose normalized by body weight).</nciodm:CDISCDefinition>
                    <nciodm:PreferredTerm>Day Times Microgram Per Milliliter Per Milligram Per Gram Per Day</nciodm:PreferredTerm>
                </EnumeratedItem>
                <EnumeratedItem CodedValue="day*ug/mL/g" nciodm:ExtCodeID="C112248">
                    <nciodm:CDISCDefinition>Days times micrograms per milliliter (area under the curve), divided by grams (weight).</nciodm:CDISCDefinition>
                    <nciodm:PreferredTerm>Day Times Microgram Per Milliliter Per Gram</nciodm:PreferredTerm>
                </EnumeratedItem>
                <EnumeratedItem CodedValue="day*ug/mL/kg" nciodm:ExtCodeID="C112249">
                    <nciodm:CDISCDefinition>Days times micrograms per milliliter (area under the curve), divided by kilograms (weight).</nciodm:CDISCDefinition>
                    <nciodm:PreferredTerm>Day Times Microgram Per Milliliter Per Kilogram</nciodm:PreferredTerm>
                </EnumeratedItem>
                <EnumeratedItem CodedValue="day*ug/mL/m2" nciodm:ExtCodeID="C111172">
                    <nciodm:CDISCDefinition>Days times micrograms per milliliter (area under the curve), divided by meters squared (surface area).</nciodm:CDISCDefinition>
                    <nciodm:PreferredTerm>Day Times Microgram per Milliliter per Meter Squared</nciodm:PreferredTerm>
                </EnumeratedItem>
                <EnumeratedItem CodedValue="day*umol/L" nciodm:ExtCodeID="C85592">
                    <nciodm:CDISCDefinition>Days times micromoles per liter (area under the curve).</nciodm:CDISCDefinition>
                    <nciodm:PreferredTerm>Day Times Nanomole per Milliliter</nciodm:PreferredTerm>
                </EnumeratedItem>
                <EnumeratedItem CodedValue="day*umol/L/(kg/m2)" nciodm:ExtCodeID="C111173">
                    <nciodm:CDISCDefinition>Days times micromoles per liter (area under the curve), divided by kilograms per meter squared (body mass index).</nciodm:CDISCDefinition>
                    <nciodm:PreferredTerm>Day Times Micromole per Liter per Kilogram per Meter Squared</nciodm:PreferredTerm>
                </EnumeratedItem>
                <EnumeratedItem CodedValue="day*umol/L/(mg/g)" nciodm:ExtCodeID="C117914">
                    <nciodm:CDISCDefinition>Days times micromoles per liter (area under the curve), divided by milligrams per gram (dose normalized by body weight).</nciodm:CDISCDefinition>
                    <nciodm:PreferredTerm>Day Times Micromole Per Liter Per Milligram Per Gram</nciodm:PreferredTerm>
                </EnumeratedItem>
                <EnumeratedItem CodedValue="day*umol/L/(mg/g/day)" nciodm:ExtCodeID="C117915">
                    <nciodm:CDISCDefinition>Days times micromoles per liter (area under the curve), divided by milligrams per gram per day (daily dose normalized by body weight).</nciodm:CDISCDefinition>
                    <nciodm:PreferredTerm>Day Times Micromole Per Liter Per Milligram Per Gram Per Day</nciodm:PreferredTerm>
                </EnumeratedItem>
                <EnumeratedItem CodedValue="day*umol/L/g" nciodm:ExtCodeID="C112250">
                    <nciodm:CDISCDefinition>Days times micromoles per liter (area under the curve), divided by grams (weight).</nciodm:CDISCDefinition>
                    <nciodm:PreferredTerm>Day Times Micromole Per Liter Per Gram</nciodm:PreferredTerm>
                </EnumeratedItem>
                <EnumeratedItem CodedValue="day*umol/L/kg" nciodm:ExtCodeID="C112251">
                    <nciodm:CDISCDefinition>Days times micromoles per liter (area under the curve), divided by kilograms (weight).</nciodm:CDISCDefinition>
                    <nciodm:PreferredTerm>Day Times Micromole Per Liter Per Kilogram</nciodm:PreferredTerm>
                </EnumeratedItem>
                <EnumeratedItem CodedValue="day*umol/L/m2" nciodm:ExtCodeID="C111174">
                    <nciodm:CDISCDefinition>Days times micromoles per liter (area under the curve), divided by meters squared (surface area).</nciodm:CDISCDefinition>
                    <nciodm:PreferredTerm>Day Times Micromole per Liter per Meter Squared</nciodm:PreferredTerm>
                </EnumeratedItem>
                <EnumeratedItem CodedValue="fg/mL" nciodm:ExtCodeID="C85597">
                    <nciodm:CDISCSynonym>fg/mL</nciodm:CDISCSynonym>
                    <nciodm:CDISCSynonym>pg/L</nciodm:CDISCSynonym>
                    <nciodm:CDISCDefinition>A unit of concentration or mass density equal to one femtogram of substance per milliliter of solution or one picogram of substance per liter of solution.</nciodm:CDISCDefinition>
                    <nciodm:PreferredTerm>Femtogram per Milliliter</nciodm:PreferredTerm>
                </EnumeratedItem>
                <EnumeratedItem CodedValue="fg/mL/(kg/m2)" nciodm:ExtCodeID="C119336">
                    <nciodm:CDISCDefinition>Femtograms per milliliter (concentration), divided by kilograms per meter squared (body mass index).</nciodm:CDISCDefinition>
                    <nciodm:PreferredTerm>Femtogram per Milliliter per Kilogram per Meter Squared</nciodm:PreferredTerm>
                </EnumeratedItem>
                <EnumeratedItem CodedValue="fg/mL/(mg/day)" nciodm:ExtCodeID="C119337">
                    <nciodm:CDISCDefinition>Femtograms per milliliter (concentration), divided by milligrams per day (daily dose).</nciodm:CDISCDefinition>
                    <nciodm:PreferredTerm>Femtogram per Milliliter per Milligram per Day</nciodm:PreferredTerm>
                </EnumeratedItem>
                <EnumeratedItem CodedValue="fg/mL/(mg/kg)" nciodm:ExtCodeID="C119338">
                    <nciodm:CDISCDefinition>Femtograms per milliliter (concentration), divided by milligrams per kilogram.</nciodm:CDISCDefinition>
                    <nciodm:PreferredTerm>Femtogram per Milliliter per Milligram per Kilogram</nciodm:PreferredTerm>
                </EnumeratedItem>
                <EnumeratedItem CodedValue="fg/mL/(mg/kg/day)" nciodm:ExtCodeID="C119339">
                    <nciodm:CDISCDefinition>Femtograms per milliliter (concentration), divided by milligrams per kilogram per day.</nciodm:CDISCDefinition>
                    <nciodm:PreferredTerm>Femtogram per Milliliter per Milligram per Kilogram per Day</nciodm:PreferredTerm>
                </EnumeratedItem>
                <EnumeratedItem CodedValue="fg/mL/(mg/m2)" nciodm:ExtCodeID="C119340">
                    <nciodm:CDISCDefinition>Femtograms per milliliter (concentration), divided by milligrams per meter squared.</nciodm:CDISCDefinition>
                    <nciodm:PreferredTerm>Femtogram per Milliliter per Milligram per Meter Squared</nciodm:PreferredTerm>
                </EnumeratedItem>
                <EnumeratedItem CodedValue="fg/mL/(mg/m2/day)" nciodm:ExtCodeID="C119341">
                    <nciodm:CDISCDefinition>Femtograms per milliliter (concentration), divided by milligrams per meter squared per day (daily dose normalized by surface area).</nciodm:CDISCDefinition>
                    <nciodm:PreferredTerm>Femtogram per Milliliter per Milligram per Meter Squared per Day</nciodm:PreferredTerm>
                </EnumeratedItem>
                <EnumeratedItem CodedValue="fg/mL/(ug/day)" nciodm:ExtCodeID="C119342">
                    <nciodm:CDISCDefinition>Femtograms per milliliter (concentration), divided by micrograms per day (daily dose).</nciodm:CDISCDefinition>
                    <nciodm:PreferredTerm>Femtogram per Milliliter per Microgram per Day</nciodm:PreferredTerm>
                </EnumeratedItem>
                <EnumeratedItem CodedValue="fg/mL/(ug/kg)" nciodm:ExtCodeID="C119343">
                    <nciodm:CDISCDefinition>Femtograms per milliliter (concentration), divided by micrograms per kilogram.</nciodm:CDISCDefinition>
                    <nciodm:PreferredTerm>Femtogram per Milliliter per Microgram per Kilogram</nciodm:PreferredTerm>
                </EnumeratedItem>
                <EnumeratedItem CodedValue="fg/mL/(ug/kg/day)" nciodm:ExtCodeID="C119344">
                    <nciodm:CDISCDefinition>Femtograms per milliliter (concentration), divided by micrograms per kilogram per day.</nciodm:CDISCDefinition>
                    <nciodm:PreferredTerm>Femtogram per Milliliter per Microgram per Kilogram per Day</nciodm:PreferredTerm>
                </EnumeratedItem>
                <EnumeratedItem CodedValue="fg/mL/(ug/m2)" nciodm:ExtCodeID="C119345">
                    <nciodm:CDISCDefinition>Femtograms per milliliter (concentration), divided by micrograms per meter squared.</nciodm:CDISCDefinition>
                    <nciodm:PreferredTerm>Femtogram per Milliliter per Microgram per Meter Squared</nciodm:PreferredTerm>
                </EnumeratedItem>
                <EnumeratedItem CodedValue="fg/mL/(ug/m2/day)" nciodm:ExtCodeID="C119346">
                    <nciodm:CDISCDefinition>Femtograms per milliliter (concentration), divided by micrograms per meter squared per day (daily dose normalized by surface area).</nciodm:CDISCDefinition>
                    <nciodm:PreferredTerm>Femtogram per Milliliter per Microgram per Meter Squared per Day</nciodm:PreferredTerm>
                </EnumeratedItem>
                <EnumeratedItem CodedValue="fg/mL/g" nciodm:ExtCodeID="C119347">
                    <nciodm:CDISCDefinition>Femtograms per milliliter (concentration), divided by grams (weight).</nciodm:CDISCDefinition>
                    <nciodm:PreferredTerm>Femtogram per Milliliter per Gram</nciodm:PreferredTerm>
                </EnumeratedItem>
                <EnumeratedItem CodedValue="fg/mL/kg" nciodm:ExtCodeID="C119348">
                    <nciodm:CDISCDefinition>Femtograms per milliliter (concentration), divided by kilograms (weight).</nciodm:CDISCDefinition>
                    <nciodm:PreferredTerm>Femtogram per Milliliter per Kilogram</nciodm:PreferredTerm>
                </EnumeratedItem>
                <EnumeratedItem CodedValue="fg/mL/m2" nciodm:ExtCodeID="C119349">
                    <nciodm:CDISCDefinition>Femtograms per milliliter (concentration), divided by meters squared (surface area).</nciodm:CDISCDefinition>
                    <nciodm:PreferredTerm>Femtogram per Milliliter per Meter Squared</nciodm:PreferredTerm>
                </EnumeratedItem>
                <EnumeratedItem CodedValue="fg/mL/mg" nciodm:ExtCodeID="C119350">
                    <nciodm:CDISCDefinition>Femtograms per milliliter (concentration), divided by milligrams (dose).</nciodm:CDISCDefinition>
                    <nciodm:PreferredTerm>Femtogram per Milliliter per Milligram</nciodm:PreferredTerm>
                </EnumeratedItem>
                <EnumeratedItem CodedValue="fg/mL/ug" nciodm:ExtCodeID="C119351">
                    <nciodm:CDISCDefinition>Femtograms per milliliter (concentration), divided by micrograms (dose).</nciodm:CDISCDefinition>
                    <nciodm:PreferredTerm>Femtogram per Milliliter per Microgram</nciodm:PreferredTerm>
                </EnumeratedItem>
                <EnumeratedItem CodedValue="g" nciodm:ExtCodeID="C48155">
                    <nciodm:CDISCSynonym>Gram</nciodm:CDISCSynonym>
                    <nciodm:CDISCDefinition>A metric unit of mass equal to one one thousandth of a kilogram. (NCI)</nciodm:CDISCDefinition>
                    <nciodm:PreferredTerm>Gram</nciodm:PreferredTerm>
                </EnumeratedItem>
                <EnumeratedItem CodedValue="g/day" nciodm:ExtCodeID="C67372">
                    <nciodm:CDISCSynonym>Gram per Day</nciodm:CDISCSynonym>
                    <nciodm:CDISCSynonym>g/24h</nciodm:CDISCSynonym>
                    <nciodm:CDISCSynonym>g/d</nciodm:CDISCSynonym>
                    <nciodm:CDISCSynonym>gram/24 Hours</nciodm:CDISCSynonym>
                    <nciodm:CDISCSynonym>gram/day</nciodm:CDISCSynonym>
                    <nciodm:CDISCDefinition>A dose calculation unit expressed in gram(s) per period of time equal to twenty-four hours.</nciodm:CDISCDefinition>
                    <nciodm:PreferredTerm>Gram per 24 Hours</nciodm:PreferredTerm>
                </EnumeratedItem>
                <EnumeratedItem CodedValue="g/h" nciodm:ExtCodeID="C85601">
                    <nciodm:CDISCSynonym>g/h</nciodm:CDISCSynonym>
                    <nciodm:CDISCSynonym>gram/h</nciodm:CDISCSynonym>
                    <nciodm:CDISCDefinition>Grams per hour.</nciodm:CDISCDefinition>
                    <nciodm:PreferredTerm>Gram per Hour</nciodm:PreferredTerm>
                </EnumeratedItem>
                <EnumeratedItem CodedValue="g/min" nciodm:ExtCodeID="C85602">
                    <nciodm:CDISCSynonym>g/min</nciodm:CDISCSynonym>
                    <nciodm:CDISCSynonym>gram/min</nciodm:CDISCSynonym>
                    <nciodm:CDISCDefinition>Grams per minute.</nciodm:CDISCDefinition>
                    <nciodm:PreferredTerm>Gram per Minute</nciodm:PreferredTerm>
                </EnumeratedItem>
                <EnumeratedItem CodedValue="g/mL" nciodm:ExtCodeID="C64566">
                    <nciodm:CDISCSynonym>Gram per Milliliter</nciodm:CDISCSynonym>
                    <nciodm:CDISCSynonym>Kilogram per Liter</nciodm:CDISCSynonym>
                    <nciodm:CDISCSynonym>g/mL</nciodm:CDISCSynonym>
                    <nciodm:CDISCSynonym>gram/mL</nciodm:CDISCSynonym>
                    <nciodm:CDISCSynonym>kg/L</nciodm:CDISCSynonym>
                    <nciodm:CDISCSynonym>mg/uL</nciodm:CDISCSynonym>
                    <nciodm:CDISCDefinition>A unit of concentration or mass density equal to one gram of substance per milliliter of solution or one kilogram of substance per liter of solution.</nciodm:CDISCDefinition>
                    <nciodm:PreferredTerm>Kilogram per Liter</nciodm:PreferredTerm>
                </EnumeratedItem>
                <EnumeratedItem CodedValue="g/mL/(kg/m2)" nciodm:ExtCodeID="C119352">
                    <nciodm:CDISCDefinition>Grams per milliliter (concentration), divided by kilograms per meter squared (body mass index).</nciodm:CDISCDefinition>
                    <nciodm:PreferredTerm>Gram per Milliliter per Kilogram per Meter Squared</nciodm:PreferredTerm>
                </EnumeratedItem>
                <EnumeratedItem CodedValue="g/mL/(mg/day)" nciodm:ExtCodeID="C119353">
                    <nciodm:CDISCDefinition>Grams per milliliter (concentration), divided by milligrams per day (daily dose).</nciodm:CDISCDefinition>
                    <nciodm:PreferredTerm>Gram per Milliliter per Milligram per Day</nciodm:PreferredTerm>
                </EnumeratedItem>
                <EnumeratedItem CodedValue="g/mL/(mg/kg)" nciodm:ExtCodeID="C105462">
                    <nciodm:CDISCDefinition>Grams per milliliter (concentration), divided by milligrams per kilogram (dose normalized by body weight).</nciodm:CDISCDefinition>
                    <nciodm:PreferredTerm>Gram Per Milliliter Per Milligram Per Kilogram</nciodm:PreferredTerm>
                </EnumeratedItem>
                <EnumeratedItem CodedValue="g/mL/(mg/kg/day)" nciodm:ExtCodeID="C105463">
                    <nciodm:CDISCDefinition>Grams per milliliter (concentration), divided by milligrams per kilogram per day (daily dose normalized by body weight).</nciodm:CDISCDefinition>
                    <nciodm:PreferredTerm>Gram Per Milliliter Per Milligram Per Kilogram Per Day</nciodm:PreferredTerm>
                </EnumeratedItem>
                <EnumeratedItem CodedValue="g/mL/(mg/m2)" nciodm:ExtCodeID="C119354">
                    <nciodm:CDISCDefinition>Grams per milliliter (concentration), divided by milligrams per meter squared.</nciodm:CDISCDefinition>
                    <nciodm:PreferredTerm>Gram per Milliliter per Milligram per Meter Squared</nciodm:PreferredTerm>
                </EnumeratedItem>
                <EnumeratedItem CodedValue="g/mL/(mg/m2/day)" nciodm:ExtCodeID="C119355">
                    <nciodm:CDISCDefinition>Grams per milliliter (concentration), divided by milligrams per meter squared per day (daily dose normalized by surface area).</nciodm:CDISCDefinition>
                    <nciodm:PreferredTerm>Gram per Milliliter per Milligram per Meter Squared per Day</nciodm:PreferredTerm>
                </EnumeratedItem>
                <EnumeratedItem CodedValue="g/mL/(ug/day)" nciodm:ExtCodeID="C119356">
                    <nciodm:CDISCDefinition>Grams per milliliter (concentration), divided by micrograms per day (daily dose).</nciodm:CDISCDefinition>
                    <nciodm:PreferredTerm>Gram per Milliliter per Microgram per Day</nciodm:PreferredTerm>
                </EnumeratedItem>
                <EnumeratedItem CodedValue="g/mL/(ug/kg)" nciodm:ExtCodeID="C119357">
                    <nciodm:CDISCDefinition>Grams per milliliter (concentration), divided by micrograms per kilogram.</nciodm:CDISCDefinition>
                    <nciodm:PreferredTerm>Gram per Milliliter per Microgram per Kilogram</nciodm:PreferredTerm>
                </EnumeratedItem>
                <EnumeratedItem CodedValue="g/mL/(ug/kg/day)" nciodm:ExtCodeID="C119358">
                    <nciodm:CDISCDefinition>Grams per milliliter (concentration), divided by micrograms per kilogram per day.</nciodm:CDISCDefinition>
                    <nciodm:PreferredTerm>Gram per Milliliter per Microgram per Kilogram per Day</nciodm:PreferredTerm>
                </EnumeratedItem>
                <EnumeratedItem CodedValue="g/mL/(ug/m2)" nciodm:ExtCodeID="C119359">
                    <nciodm:CDISCDefinition>Grams per milliliter (concentration), divided by micrograms per meter squared.</nciodm:CDISCDefinition>
                    <nciodm:PreferredTerm>Gram per Milliliter per Microgram per Meter Squared</nciodm:PreferredTerm>
                </EnumeratedItem>
                <EnumeratedItem CodedValue="g/mL/(ug/m2/day)" nciodm:ExtCodeID="C119360">
                    <nciodm:CDISCDefinition>Grams per milliliter (concentration), divided by micrograms per meter squared per day (daily dose normalized by surface area).</nciodm:CDISCDefinition>
                    <nciodm:PreferredTerm>Gram per Milliliter per Microgram per Meter Squared per Day</nciodm:PreferredTerm>
                </EnumeratedItem>
                <EnumeratedItem CodedValue="g/mL/g" nciodm:ExtCodeID="C119361">
                    <nciodm:CDISCDefinition>Grams per milliliter (concentration), divided by grams (weight).</nciodm:CDISCDefinition>
                    <nciodm:PreferredTerm>Gram per Milliliter per Gram</nciodm:PreferredTerm>
                </EnumeratedItem>
                <EnumeratedItem CodedValue="g/mL/kg" nciodm:ExtCodeID="C119362">
                    <nciodm:CDISCDefinition>Grams per milliliter (concentration), divided by kilograms (weight).</nciodm:CDISCDefinition>
                    <nciodm:PreferredTerm>Gram per Milliliter per Kilogram</nciodm:PreferredTerm>
                </EnumeratedItem>
                <EnumeratedItem CodedValue="g/mL/m2" nciodm:ExtCodeID="C119363">
                    <nciodm:CDISCDefinition>Grams per milliliter (concentration), divided by meters squared (surface area).</nciodm:CDISCDefinition>
                    <nciodm:PreferredTerm>Gram per Milliliter per Meter Squared</nciodm:PreferredTerm>
                </EnumeratedItem>
                <EnumeratedItem CodedValue="g/mL/mg" nciodm:ExtCodeID="C119364">
                    <nciodm:CDISCDefinition>Grams per milliliter (concentration), divided by milligrams (dose).</nciodm:CDISCDefinition>
                    <nciodm:PreferredTerm>Gram per Milliliter per Milligram</nciodm:PreferredTerm>
                </EnumeratedItem>
                <EnumeratedItem CodedValue="g/mL/ug" nciodm:ExtCodeID="C119365">
                    <nciodm:CDISCDefinition>Grams per milliliter (concentration), divided by micrograms (dose).</nciodm:CDISCDefinition>
                    <nciodm:PreferredTerm>Gram per Milliliter per Microgram</nciodm:PreferredTerm>
                </EnumeratedItem>
                <EnumeratedItem CodedValue="h" nciodm:ExtCodeID="C25529">
                    <nciodm:CDISCSynonym>Hour</nciodm:CDISCSynonym>
                    <nciodm:CDISCSynonym>hr</nciodm:CDISCSynonym>
                    <nciodm:CDISCDefinition>A unit measure of time equal to 3,600 seconds or 60 minutes. It is approximately 1/24 of a median day. (NCI)</nciodm:CDISCDefinition>
                    <nciodm:PreferredTerm>Hour</nciodm:PreferredTerm>
                </EnumeratedItem>
                <EnumeratedItem CodedValue="h*fg/mL" nciodm:ExtCodeID="C85611">
                    <nciodm:CDISCDefinition>Hours times femtograms per milliliter (area under the curve).</nciodm:CDISCDefinition>
                    <nciodm:PreferredTerm>Hour Times Femtogram per Milliliter</nciodm:PreferredTerm>
                </EnumeratedItem>
                <EnumeratedItem CodedValue="h*fg/mL/(kg/m2)" nciodm:ExtCodeID="C111210">
                    <nciodm:CDISCDefinition>Hours times femtograms per milliliter (area under the curve), divided by kilograms per meter squared (body mass index).</nciodm:CDISCDefinition>
                    <nciodm:PreferredTerm>Hour Times Femtogram per Milliliter per Kilogram per Meter Squared</nciodm:PreferredTerm>
                </EnumeratedItem>
                <EnumeratedItem CodedValue="h*fg/mL/(mg/g)" nciodm:ExtCodeID="C117916">
                    <nciodm:CDISCDefinition>Hours times femtograms per milliliter (area under the curve), divided by milligrams per gram (dose normalized by body weight).</nciodm:CDISCDefinition>
                    <nciodm:PreferredTerm>Hour Times Femtogram Per Milliliter Per Milligram Per Gram</nciodm:PreferredTerm>
                </EnumeratedItem>
                <EnumeratedItem CodedValue="h*fg/mL/(mg/g/day)" nciodm:ExtCodeID="C117917">
                    <nciodm:CDISCDefinition>Hours times femtograms per milliliter (area under the curve), divided by milligrams per gram per day (daily dose normalized by body weight).</nciodm:CDISCDefinition>
                    <nciodm:PreferredTerm>Hour Times Femtogram Per Milliliter Per Milligram Per Gram Per Day</nciodm:PreferredTerm>
                </EnumeratedItem>
                <EnumeratedItem CodedValue="h*fg/mL/g" nciodm:ExtCodeID="C112298">
                    <nciodm:CDISCDefinition>Hours times femtograms per milliliter (area under the curve), divided by grams (weight).</nciodm:CDISCDefinition>
                    <nciodm:PreferredTerm>Hour Times Femtogram Per Milliliter Per Gram</nciodm:PreferredTerm>
                </EnumeratedItem>
                <EnumeratedItem CodedValue="h*fg/mL/kg" nciodm:ExtCodeID="C112299">
                    <nciodm:CDISCDefinition>Hours times femtograms per milliliter (area under the curve), divided by kilograms (weight).</nciodm:CDISCDefinition>
                    <nciodm:PreferredTerm>Hour Times Femtogram Per Milliliter Per Kilogram</nciodm:PreferredTerm>
                </EnumeratedItem>
                <EnumeratedItem CodedValue="h*fg/mL/m2" nciodm:ExtCodeID="C111211">
                    <nciodm:CDISCDefinition>Hours times femtograms per milliliter (area under the curve), divided by meters squared (surface area).</nciodm:CDISCDefinition>
                    <nciodm:PreferredTerm>Hour Times Femtogram per Milliliter per Meter Squared</nciodm:PreferredTerm>
                </EnumeratedItem>
                <EnumeratedItem CodedValue="h*g/mL" nciodm:ExtCodeID="C85613">
                    <nciodm:CDISCDefinition>Hours times grams per milliliter (area under the curve).</nciodm:CDISCDefinition>
                    <nciodm:PreferredTerm>Hour Times Gram per Milliliter</nciodm:PreferredTerm>
                </EnumeratedItem>
                <EnumeratedItem CodedValue="h*g/mL/(kg/m2)" nciodm:ExtCodeID="C111212">
                    <nciodm:CDISCDefinition>Hours times grams per milliliter (area under the curve), divided by kilograms per meter squared (body mass index).</nciodm:CDISCDefinition>
                    <nciodm:PreferredTerm>Hour Times Gram per Milliliter per Kilogram per Meter Squared</nciodm:PreferredTerm>
                </EnumeratedItem>
                <EnumeratedItem CodedValue="h*g/mL/(mg/g)" nciodm:ExtCodeID="C117918">
                    <nciodm:CDISCDefinition>Hours times grams per milliliter (area under the curve), divided by milligrams per gram (dose normalized by body weight).</nciodm:CDISCDefinition>
                    <nciodm:PreferredTerm>Hour Times gram Per Milliliter Per Milligram Per Gram</nciodm:PreferredTerm>
                </EnumeratedItem>
                <EnumeratedItem CodedValue="h*g/mL/(mg/g/day)" nciodm:ExtCodeID="C117919">
                    <nciodm:CDISCDefinition>Hours times grams per milliliter (area under the curve), divided by milligrams per gram per day (daily dose normalized by body weight).</nciodm:CDISCDefinition>
                    <nciodm:PreferredTerm>Hour Times gram Per Milliliter Per Milligram Per Gram Per Day</nciodm:PreferredTerm>
                </EnumeratedItem>
                <EnumeratedItem CodedValue="h*g/mL/(mg/kg)" nciodm:ExtCodeID="C105464">
                    <nciodm:CDISCSynonym>h*g/mL/(ug/g)</nciodm:CDISCSynonym>
                    <nciodm:CDISCDefinition>Hours times grams per milliliter (area under the curve), divided by milligrams per kilogram (dose normalized by body weight).</nciodm:CDISCDefinition>
                    <nciodm:PreferredTerm>Hour Times Gram Per Milliliter Per Milligram Per Kilogram</nciodm:PreferredTerm>
                </EnumeratedItem>
                <EnumeratedItem CodedValue="h*g/mL/(mg/kg/day)" nciodm:ExtCodeID="C105465">
                    <nciodm:CDISCSynonym>h*g/mL/(ug/g/day)</nciodm:CDISCSynonym>
                    <nciodm:CDISCDefinition>Hours times grams per milliliter (area under the curve), divided by milligrams per kilogram per day (daily dose normalized by body weight).</nciodm:CDISCDefinition>
                    <nciodm:PreferredTerm>Hour Times Gram Per Milliliter Per Milligram Per Kilogram Per Day</nciodm:PreferredTerm>
                </EnumeratedItem>
                <EnumeratedItem CodedValue="h*g/mL/g" nciodm:ExtCodeID="C112300">
                    <nciodm:CDISCDefinition>Hours times grams per milliliter (area under the curve), divided by grams (weight).</nciodm:CDISCDefinition>
                    <nciodm:PreferredTerm>Hour Times Gram Per Milliliter Per Gram</nciodm:PreferredTerm>
                </EnumeratedItem>
                <EnumeratedItem CodedValue="h*g/mL/kg" nciodm:ExtCodeID="C112301">
                    <nciodm:CDISCDefinition>Hours times grams per milliliter (area under the curve), divided by kilograms (weight).</nciodm:CDISCDefinition>
                    <nciodm:PreferredTerm>Hour Times Gram Per Milliliter Per Kilogram</nciodm:PreferredTerm>
                </EnumeratedItem>
                <EnumeratedItem CodedValue="h*g/mL/m2" nciodm:ExtCodeID="C111213">
                    <nciodm:CDISCDefinition>Hours times grams per milliliter (area under the curve), divided by meters squared (surface area).</nciodm:CDISCDefinition>
                    <nciodm:PreferredTerm>Hour Times Gram per Milliliter per Meter Squared</nciodm:PreferredTerm>
                </EnumeratedItem>
                <EnumeratedItem CodedValue="h*mg/mL" nciodm:ExtCodeID="C85621">
                    <nciodm:CDISCDefinition>Hours times milligrams per milliliter (area under the curve).</nciodm:CDISCDefinition>
                    <nciodm:PreferredTerm>Hour Times Milligram per Milliliter</nciodm:PreferredTerm>
                </EnumeratedItem>
                <EnumeratedItem CodedValue="h*mg/mL/(kg/m2)" nciodm:ExtCodeID="C111218">
                    <nciodm:CDISCDefinition>Hours times milligrams per milliliter (area under the curve), divided by kilograms per meter squared (body mass index).</nciodm:CDISCDefinition>
                    <nciodm:PreferredTerm>Hour Times Milligram per Milliliter per Kilogram per Meter Squared</nciodm:PreferredTerm>
                </EnumeratedItem>
                <EnumeratedItem CodedValue="h*mg/mL/(mg/g)" nciodm:ExtCodeID="C117920">
                    <nciodm:CDISCDefinition>Hours times milligrams per milliliter (area under the curve), divided by milligrams per gram (dose normalized by body weight).</nciodm:CDISCDefinition>
                    <nciodm:PreferredTerm>Hour Times Milligram Per Milliliter Per Milligram Per Gram</nciodm:PreferredTerm>
                </EnumeratedItem>
                <EnumeratedItem CodedValue="h*mg/mL/(mg/g/day)" nciodm:ExtCodeID="C117921">
                    <nciodm:CDISCDefinition>Hours times milligrams per milliliter (area under the curve), divided by milligrams per gram per day (daily dose normalized by body weight).</nciodm:CDISCDefinition>
                    <nciodm:PreferredTerm>Hour Times Milligram Per Milliliter Per Milligram Per Gram Per Day</nciodm:PreferredTerm>
                </EnumeratedItem>
                <EnumeratedItem CodedValue="h*mg/mL/(mg/kg)" nciodm:ExtCodeID="C105468">
                    <nciodm:CDISCSynonym>h*mg/mL/(ug/g)</nciodm:CDISCSynonym>
                    <nciodm:CDISCDefinition>Hours times milligrams per milliliter (area under the curve), divided by milligrams per kilogram (dose normalized by body weight).</nciodm:CDISCDefinition>
                    <nciodm:PreferredTerm>Hour Times Milligram Per Milliliter Per Milligram Per Kilogram</nciodm:PreferredTerm>
                </EnumeratedItem>
                <EnumeratedItem CodedValue="h*mg/mL/(mg/kg/day)" nciodm:ExtCodeID="C105469">
                    <nciodm:CDISCSynonym>h*mg/mL/(ug/g/day)</nciodm:CDISCSynonym>
                    <nciodm:CDISCDefinition>Hours times milligrams per milliliter (area under the curve), divided by milligrams per kilogram per day (daily dose normalized by body weight).</nciodm:CDISCDefinition>
                    <nciodm:PreferredTerm>Hour Times Milligram Per Milliliter Per Milligram Per Kilogram Per Day</nciodm:PreferredTerm>
                </EnumeratedItem>
                <EnumeratedItem CodedValue="h*mg/mL/g" nciodm:ExtCodeID="C112305">
                    <nciodm:CDISCDefinition>Hours times milligrams per milliliter (area under the curve), divided by grams (weight).</nciodm:CDISCDefinition>
                    <nciodm:PreferredTerm>Hour Times Milligram Per Milliliter Per Gram</nciodm:PreferredTerm>
                </EnumeratedItem>
                <EnumeratedItem CodedValue="h*mg/mL/kg" nciodm:ExtCodeID="C112306">
                    <nciodm:CDISCDefinition>Hours times milligrams per milliliter (area under the curve), divided by kilograms (weight).</nciodm:CDISCDefinition>
                    <nciodm:PreferredTerm>Hour Times Milligram Per Milliliter Per Kilogram</nciodm:PreferredTerm>
                </EnumeratedItem>
                <EnumeratedItem CodedValue="h*mg/mL/m2" nciodm:ExtCodeID="C111219">
                    <nciodm:CDISCDefinition>Hours times milligrams per milliliter (area under the curve), divided by meters squared (surface area).</nciodm:CDISCDefinition>
                    <nciodm:PreferredTerm>Hour Times Milligram per Milliliter per Meter Squared</nciodm:PreferredTerm>
                </EnumeratedItem>
                <EnumeratedItem CodedValue="h*mmol/L" nciodm:ExtCodeID="C85618">
                    <nciodm:CDISCDefinition>Hours times millimoles per liter (area under the curve).</nciodm:CDISCDefinition>
                    <nciodm:PreferredTerm>Hour Times Micromole per Milliliter</nciodm:PreferredTerm>
                </EnumeratedItem>
                <EnumeratedItem CodedValue="h*mmol/L/(kg/m2)" nciodm:ExtCodeID="C111220">
                    <nciodm:CDISCDefinition>Hours times millimoles per liter (area under the curve), divided by kilograms per meter squared (body mass index).</nciodm:CDISCDefinition>
                    <nciodm:PreferredTerm>Hour Times Millimole per Liter per Kilogram per Meter Squared</nciodm:PreferredTerm>
                </EnumeratedItem>
                <EnumeratedItem CodedValue="h*mmol/L/(mg/g)" nciodm:ExtCodeID="C117922">
                    <nciodm:CDISCDefinition>Hours times millimoles per liter (area under the curve), divided by milligrams per gram (dose normalized by body weight).</nciodm:CDISCDefinition>
                    <nciodm:PreferredTerm>Hour Times Millimole Per Liter Per Milligram Per Gram</nciodm:PreferredTerm>
                </EnumeratedItem>
                <EnumeratedItem CodedValue="h*mmol/L/(mg/g/day)" nciodm:ExtCodeID="C117923">
                    <nciodm:CDISCDefinition>Hours times millimoles per liter (area under the curve), divided by milligrams per gram per day (daily dose normalized by body weight).</nciodm:CDISCDefinition>
                    <nciodm:PreferredTerm>Hour Times Millimole Per Liter Per Milligram Per Gram Per Day</nciodm:PreferredTerm>
                </EnumeratedItem>
                <EnumeratedItem CodedValue="h*mmol/L/g" nciodm:ExtCodeID="C106530">
                    <nciodm:CDISCDefinition>Hours times millimoles per liter (area under the curve), divided by grams (weight).</nciodm:CDISCDefinition>
                    <nciodm:PreferredTerm>Hour times Millimole Per Liter Per Gram</nciodm:PreferredTerm>
                </EnumeratedItem>
                <EnumeratedItem CodedValue="h*mmol/L/kg" nciodm:ExtCodeID="C112307">
                    <nciodm:CDISCDefinition>Hours times millimoles per liter (area under the curve), divided by kilograms (weight).</nciodm:CDISCDefinition>
                    <nciodm:PreferredTerm>Hour Times Millimole Per Liter Per Kilogram</nciodm:PreferredTerm>
                </EnumeratedItem>
                <EnumeratedItem CodedValue="h*mmol/L/m2" nciodm:ExtCodeID="C111221">
                    <nciodm:CDISCDefinition>Hours times millimoles per liter (area under the curve), divided by meters squared (surface area).</nciodm:CDISCDefinition>
                    <nciodm:PreferredTerm>Hour Times Millimole per Liter per Meter Squared</nciodm:PreferredTerm>
                </EnumeratedItem>
                <EnumeratedItem CodedValue="h*mol/L" nciodm:ExtCodeID="C85622">
                    <nciodm:CDISCDefinition>Hours times moles per liter (area under the curve).</nciodm:CDISCDefinition>
                    <nciodm:PreferredTerm>Hour Times Millimole per Milliliter</nciodm:PreferredTerm>
                </EnumeratedItem>
                <EnumeratedItem CodedValue="h*mol/L/(kg/m2)" nciodm:ExtCodeID="C111222">
                    <nciodm:CDISCDefinition>Hours times moles per liter (area under the curve), divided by kilograms per meter squared (body mass index).</nciodm:CDISCDefinition>
                    <nciodm:PreferredTerm>Hour Times Mole per Liter per Kilogram per Meter Squared</nciodm:PreferredTerm>
                </EnumeratedItem>
                <EnumeratedItem CodedValue="h*mol/L/(mg/g)" nciodm:ExtCodeID="C117924">
                    <nciodm:CDISCDefinition>Hours times moles per liter (area under the curve), divided by milligrams per gram (dose normalized by body weight).</nciodm:CDISCDefinition>
                    <nciodm:PreferredTerm>Hour Times mole Per Liter Per Milligram Per Gram</nciodm:PreferredTerm>
                </EnumeratedItem>
                <EnumeratedItem CodedValue="h*mol/L/(mg/g/day)" nciodm:ExtCodeID="C117925">
                    <nciodm:CDISCDefinition>Hours times moles per liter (area under the curve), divided by milligrams per gram per day (daily dose normalized by body weight).</nciodm:CDISCDefinition>
                    <nciodm:PreferredTerm>Hour Times mole Per Liter Per Milligram Per Gram Per Day</nciodm:PreferredTerm>
                </EnumeratedItem>
                <EnumeratedItem CodedValue="h*mol/L/g" nciodm:ExtCodeID="C106531">
                    <nciodm:CDISCDefinition>Hours times moles per liter (area under the curve), divided by grams (weight).</nciodm:CDISCDefinition>
                    <nciodm:PreferredTerm>Hour times Mole Per Liter Per Gram</nciodm:PreferredTerm>
                </EnumeratedItem>
                <EnumeratedItem CodedValue="h*mol/L/kg" nciodm:ExtCodeID="C112308">
                    <nciodm:CDISCDefinition>Hours times moles per liter (area under the curve), divided by kilograms (weight).</nciodm:CDISCDefinition>
                    <nciodm:PreferredTerm>Hour Times Mole Per Liter Per Kilogram</nciodm:PreferredTerm>
                </EnumeratedItem>
                <EnumeratedItem CodedValue="h*mol/L/m2" nciodm:ExtCodeID="C111223">
                    <nciodm:CDISCDefinition>Hours times moles per liter (area under the curve), divided by meters squared (surface area).</nciodm:CDISCDefinition>
                    <nciodm:PreferredTerm>Hour Times Mole per Liter per Meter Squared</nciodm:PreferredTerm>
                </EnumeratedItem>
                <EnumeratedItem CodedValue="h*ng/mL" nciodm:ExtCodeID="C85624">
                    <nciodm:CDISCDefinition>Hours times nanograms per milliliter (area under the curve).</nciodm:CDISCDefinition>
                    <nciodm:PreferredTerm>Hour Times Nanogram per Milliliter</nciodm:PreferredTerm>
                </EnumeratedItem>
                <EnumeratedItem CodedValue="h*ng/mL/(kg/m2)" nciodm:ExtCodeID="C111224">
                    <nciodm:CDISCDefinition>Hours times nanograms per milliliter (area under the curve), divided by kilograms per meter squared (body mass index).</nciodm:CDISCDefinition>
                    <nciodm:PreferredTerm>Hour Times Nanogram per Milliliter per Kilogram per Meter Squared</nciodm:PreferredTerm>
                </EnumeratedItem>
                <EnumeratedItem CodedValue="h*ng/mL/(mg/g)" nciodm:ExtCodeID="C117926">
                    <nciodm:CDISCDefinition>Hours times nanograms per milliliter (area under the curve), divided by milligrams per gram (dose normalized by body weight).</nciodm:CDISCDefinition>
                    <nciodm:PreferredTerm>Hour Times Nanogram Per Milliliter Per Milligram Per Gram</nciodm:PreferredTerm>
                </EnumeratedItem>
                <EnumeratedItem CodedValue="h*ng/mL/(mg/g/day)" nciodm:ExtCodeID="C117927">
                    <nciodm:CDISCDefinition>Hours times nanograms per milliliter (area under the curve), divided by milligrams per gram per day (daily dose normalized by body weight).</nciodm:CDISCDefinition>
                    <nciodm:PreferredTerm>Hour Times Nanogram Per Milliliter Per Milligram Per Gram Per Day</nciodm:PreferredTerm>
                </EnumeratedItem>
                <EnumeratedItem CodedValue="h*ng/mL/(mg/kg)" nciodm:ExtCodeID="C85628">
                    <nciodm:CDISCSynonym>h*ng/mL/(ug/g)</nciodm:CDISCSynonym>
                    <nciodm:CDISCDefinition>Hours times nanograms per milliliter (area under the curve), divided by milligrams per kilogram (dose normalized by body weight).</nciodm:CDISCDefinition>
                    <nciodm:PreferredTerm>Hour Times Nanogram per Milliliter per Milligram per Kilogram</nciodm:PreferredTerm>
                </EnumeratedItem>
                <EnumeratedItem CodedValue="h*ng/mL/(mg/kg/day)" nciodm:ExtCodeID="C105470">
                    <nciodm:CDISCSynonym>h*ng/mL/(ug/g/day)</nciodm:CDISCSynonym>
                    <nciodm:CDISCDefinition>Hours times nanograms per milliliter (area under the curve), divided by milligrams per kilogram per day (daily dose normalized by body weight).</nciodm:CDISCDefinition>
                    <nciodm:PreferredTerm>Hour Times Nanogram Per Milliliter Per Milligram Per Kilogram Per Day</nciodm:PreferredTerm>
                </EnumeratedItem>
                <EnumeratedItem CodedValue="h*ng/mL/(mg/m2)" nciodm:ExtCodeID="C85629">
                    <nciodm:CDISCDefinition>Hours times nanograms per milliliter (area under the curve), divided by milligrams per meter squared (dose normalized by surface area).</nciodm:CDISCDefinition>
                    <nciodm:PreferredTerm>Hour Times Nanogram per Milliliter per Milligram per Meter Squared</nciodm:PreferredTerm>
                </EnumeratedItem>
                <EnumeratedItem CodedValue="h*ng/mL/g" nciodm:ExtCodeID="C85625">
                    <nciodm:CDISCDefinition>Hours times nanograms per milliliter (area under the curve), divided by grams (weight).</nciodm:CDISCDefinition>
                    <nciodm:PreferredTerm>Hour Times Nanogram per Milliliter per Gram</nciodm:PreferredTerm>
                </EnumeratedItem>
                <EnumeratedItem CodedValue="h*ng/mL/kg" nciodm:ExtCodeID="C85626">
                    <nciodm:CDISCDefinition>Hours times nanograms per milliliter (area under the curve), divided by kilograms (weight).</nciodm:CDISCDefinition>
                    <nciodm:PreferredTerm>Hour Times Nanogram per Milliliter per Kilogram</nciodm:PreferredTerm>
                </EnumeratedItem>
                <EnumeratedItem CodedValue="h*ng/mL/m2" nciodm:ExtCodeID="C111225">
                    <nciodm:CDISCDefinition>Hours times nanograms per milliliter (area under the curve), divided by meters squared (surface area).</nciodm:CDISCDefinition>
                    <nciodm:PreferredTerm>Hour Times Nanogram per Milliliter per Meter Squared</nciodm:PreferredTerm>
                </EnumeratedItem>
                <EnumeratedItem CodedValue="h*ng/mL/mg" nciodm:ExtCodeID="C85627">
                    <nciodm:CDISCSynonym>h*ng/mL/mg</nciodm:CDISCSynonym>
                    <nciodm:CDISCSynonym>h*ng/mg/mL</nciodm:CDISCSynonym>
                    <nciodm:CDISCSynonym>ng*h/mL/mg</nciodm:CDISCSynonym>
                    <nciodm:CDISCSynonym>ng*h/mg/mL</nciodm:CDISCSynonym>
                    <nciodm:CDISCDefinition>Hours times nanograms per milliliter (area under the curve), divided by milligrams (dose).</nciodm:CDISCDefinition>
                    <nciodm:PreferredTerm>Hour Times Nanogram per Milliliter per Milligram</nciodm:PreferredTerm>
                </EnumeratedItem>
                <EnumeratedItem CodedValue="h*nmol/L" nciodm:ExtCodeID="C85640">
                    <nciodm:CDISCDefinition>Hours times nanomoles per liter (area under the curve).</nciodm:CDISCDefinition>
                    <nciodm:PreferredTerm>Hour Times Picomole per Milliliter</nciodm:PreferredTerm>
                </EnumeratedItem>
                <EnumeratedItem CodedValue="h*nmol/L/(kg/m2)" nciodm:ExtCodeID="C111226">
                    <nciodm:CDISCDefinition>Hours times nanomoles per liter (area under the curve), divided by kilograms per meter squared (body mass index).</nciodm:CDISCDefinition>
                    <nciodm:PreferredTerm>Hour Times Nanomole per Liter per Kilogram per Meter Squared</nciodm:PreferredTerm>
                </EnumeratedItem>
                <EnumeratedItem CodedValue="h*nmol/L/(mg/g)" nciodm:ExtCodeID="C117928">
                    <nciodm:CDISCDefinition>Hours times nanomoles per liter (area under the curve), divided by milligrams per gram (dose normalized by body weight).</nciodm:CDISCDefinition>
                    <nciodm:PreferredTerm>Hour Times Nanomole Per Liter Per Milligram Per Gram</nciodm:PreferredTerm>
                </EnumeratedItem>
                <EnumeratedItem CodedValue="h*nmol/L/(mg/g/day)" nciodm:ExtCodeID="C117929">
                    <nciodm:CDISCDefinition>Hours times nanomoles per liter (area under the curve), divided by milligrams per gram per day (daily dose normalized by body weight).</nciodm:CDISCDefinition>
                    <nciodm:PreferredTerm>Hour Times Nanomole Per Liter Per Milligram Per Gram Per Day</nciodm:PreferredTerm>
                </EnumeratedItem>
                <EnumeratedItem CodedValue="h*nmol/L/g" nciodm:ExtCodeID="C116062">
                    <nciodm:CDISCDefinition>Hours times nanomoles per liter (area under the curve), divided by grams (dose or weight).</nciodm:CDISCDefinition>
                    <nciodm:PreferredTerm>Hour Times Nanomole per Liter per Gram</nciodm:PreferredTerm>
                </EnumeratedItem>
                <EnumeratedItem CodedValue="h*nmol/L/kg" nciodm:ExtCodeID="C112309">
                    <nciodm:CDISCDefinition>Hours times nanomoles per liter (area under the curve), divided by kilograms (weight).</nciodm:CDISCDefinition>
                    <nciodm:PreferredTerm>Hour Times Nanomole Per Liter Per Kilogram</nciodm:PreferredTerm>
                </EnumeratedItem>
                <EnumeratedItem CodedValue="h*nmol/L/m2" nciodm:ExtCodeID="C111227">
                    <nciodm:CDISCDefinition>Hours times nanomoles per liter (area under the curve), divided by meters squared (surface area).</nciodm:CDISCDefinition>
                    <nciodm:PreferredTerm>Hour Times Nanomole per Liter per Meter Squared</nciodm:PreferredTerm>
                </EnumeratedItem>
                <EnumeratedItem CodedValue="h*nmol/L/umol" nciodm:ExtCodeID="C85631">
                    <nciodm:CDISCSynonym>h*nmol/L/mcmol</nciodm:CDISCSynonym>
                    <nciodm:CDISCSynonym>h*nmol/umol/L</nciodm:CDISCSynonym>
                    <nciodm:CDISCSynonym>nmol*h/L/umol</nciodm:CDISCSynonym>
                    <nciodm:CDISCSynonym>nmol*h/umol/L</nciodm:CDISCSynonym>
                    <nciodm:CDISCDefinition>Hours times nanomoles per liter per micromole.</nciodm:CDISCDefinition>
                    <nciodm:PreferredTerm>Hour Times Nanomole per Liter per Micromole</nciodm:PreferredTerm>
                </EnumeratedItem>
                <EnumeratedItem CodedValue="h*pg/mL" nciodm:ExtCodeID="C85635">
                    <nciodm:CDISCDefinition>Hours times picograms per milliliter (area under the curve).</nciodm:CDISCDefinition>
                    <nciodm:PreferredTerm>Hour Times Picogram per Milliliter</nciodm:PreferredTerm>
                </EnumeratedItem>
                <EnumeratedItem CodedValue="h*pg/mL/(kg/m2)" nciodm:ExtCodeID="C111228">
                    <nciodm:CDISCDefinition>Hours times picograms per milliliter (area under the curve), divided by kilograms per meter squared (body mass index).</nciodm:CDISCDefinition>
                    <nciodm:PreferredTerm>Hour Times Picogram per Milliliter per Kilogram per Meter Squared</nciodm:PreferredTerm>
                </EnumeratedItem>
                <EnumeratedItem CodedValue="h*pg/mL/(mg/g)" nciodm:ExtCodeID="C117930">
                    <nciodm:CDISCDefinition>Hours times picograms per milliliter (area under the curve), divided by milligrams per gram (dose normalized by body weight).</nciodm:CDISCDefinition>
                    <nciodm:PreferredTerm>Hour Times Picogram Per Milliliter Per Milligram Per Gram</nciodm:PreferredTerm>
                </EnumeratedItem>
                <EnumeratedItem CodedValue="h*pg/mL/(mg/g/day)" nciodm:ExtCodeID="C117931">
                    <nciodm:CDISCDefinition>Hours times picograms per milliliter (area under the curve), divided by milligrams per gram per day (daily dose normalized by body weight).</nciodm:CDISCDefinition>
                    <nciodm:PreferredTerm>Hour Times Picogram Per Milliliter Per Milligram Per Gram Per Day</nciodm:PreferredTerm>
                </EnumeratedItem>
                <EnumeratedItem CodedValue="h*pg/mL/(mg/kg)" nciodm:ExtCodeID="C105471">
                    <nciodm:CDISCSynonym>h*pg/mL/(ug/g)</nciodm:CDISCSynonym>
                    <nciodm:CDISCDefinition>Hours times picograms per milliliter (area under the curve), divided by milligrams per kilogram (dose normalized by body weight).</nciodm:CDISCDefinition>
                    <nciodm:PreferredTerm>Hour Times Picogram Per Milliliter Per Milligram Per Kilogram</nciodm:PreferredTerm>
                </EnumeratedItem>
                <EnumeratedItem CodedValue="h*pg/mL/(mg/kg/day)" nciodm:ExtCodeID="C105472">
                    <nciodm:CDISCSynonym>h*pg/mL/(ug/g/day)</nciodm:CDISCSynonym>
                    <nciodm:CDISCDefinition>Hours times picograms per milliliter (area under the curve), divided by milligrams per kilogram per day (daily dose normalized by body weight).</nciodm:CDISCDefinition>
                    <nciodm:PreferredTerm>Hour Times Picogram Per Milliliter Per Milligram Per Kilogram Per Day</nciodm:PreferredTerm>
                </EnumeratedItem>
                <EnumeratedItem CodedValue="h*pg/mL/g" nciodm:ExtCodeID="C112310">
                    <nciodm:CDISCDefinition>Hours times picograms per milliliter (area under the curve), divided by grams (weight).</nciodm:CDISCDefinition>
                    <nciodm:PreferredTerm>Hour Times Picogram Per Milliliter Per Gram</nciodm:PreferredTerm>
                </EnumeratedItem>
                <EnumeratedItem CodedValue="h*pg/mL/kg" nciodm:ExtCodeID="C85636">
                    <nciodm:CDISCDefinition>Hours times picograms per milliliter (area under the curve), divided by kilograms (weight).</nciodm:CDISCDefinition>
                    <nciodm:PreferredTerm>Hour Times Picogram per Milliliter per Kilogram</nciodm:PreferredTerm>
                </EnumeratedItem>
                <EnumeratedItem CodedValue="h*pg/mL/m2" nciodm:ExtCodeID="C111229">
                    <nciodm:CDISCDefinition>Hours times picograms per milliliter (area under the curve), divided by meters squared (surface area).</nciodm:CDISCDefinition>
                    <nciodm:PreferredTerm>Hour Times Picogram per Milliliter per Meter Squared</nciodm:PreferredTerm>
                </EnumeratedItem>
                <EnumeratedItem CodedValue="h*pg/mL/mg" nciodm:ExtCodeID="C85638">
                    <nciodm:CDISCSynonym>h*pg/mL/mg</nciodm:CDISCSynonym>
                    <nciodm:CDISCSynonym>h*pg/mg/mL</nciodm:CDISCSynonym>
                    <nciodm:CDISCSynonym>pg*h/mL/mg</nciodm:CDISCSynonym>
                    <nciodm:CDISCSynonym>pg*h/mg/mL</nciodm:CDISCSynonym>
                    <nciodm:CDISCDefinition>Hours times picograms per milliliter (area under the curve), divided by milligrams (dose).</nciodm:CDISCDefinition>
                    <nciodm:PreferredTerm>Hour Times Picogram per Milliliter per Milligram</nciodm:PreferredTerm>
                </EnumeratedItem>
                <EnumeratedItem CodedValue="h*pmol/L" nciodm:ExtCodeID="C85612">
                    <nciodm:CDISCDefinition>Hours times picomoles per liter (area under the curve).</nciodm:CDISCDefinition>
                    <nciodm:PreferredTerm>Hour Times Femtomole per Milliliter</nciodm:PreferredTerm>
                </EnumeratedItem>
                <EnumeratedItem CodedValue="h*pmol/L/(kg/m2)" nciodm:ExtCodeID="C111230">
                    <nciodm:CDISCDefinition>Hours times picomoles per liter (area under the curve), divided by kilograms per meter squared (body mass index).</nciodm:CDISCDefinition>
                    <nciodm:PreferredTerm>Hour Times Picomole per Liter per Kilogram per Meter Squared</nciodm:PreferredTerm>
                </EnumeratedItem>
                <EnumeratedItem CodedValue="h*pmol/L/(mg/g)" nciodm:ExtCodeID="C117932">
                    <nciodm:CDISCDefinition>Hours times picomoles per liter (area under the curve), divided by milligrams per gram (dose normalized by body weight).</nciodm:CDISCDefinition>
                    <nciodm:PreferredTerm>Hour Times Picomole Per Liter Per Milligram Per Gram</nciodm:PreferredTerm>
                </EnumeratedItem>
                <EnumeratedItem CodedValue="h*pmol/L/(mg/g/day)" nciodm:ExtCodeID="C117933">
                    <nciodm:CDISCDefinition>Hours times picomoles per liter (area under the curve), divided by milligrams per gram per day (daily dose normalized by body weight).</nciodm:CDISCDefinition>
                    <nciodm:PreferredTerm>Hour Times Picomole Per Liter Per Milligram Per Gram Per Day</nciodm:PreferredTerm>
                </EnumeratedItem>
                <EnumeratedItem CodedValue="h*pmol/L/g" nciodm:ExtCodeID="C106532">
                    <nciodm:CDISCDefinition>Hours times picomoles per liter (area under the curve), divided by grams (weight).</nciodm:CDISCDefinition>
                    <nciodm:PreferredTerm>Hour times Picomole Per Liter Per Gram</nciodm:PreferredTerm>
                </EnumeratedItem>
                <EnumeratedItem CodedValue="h*pmol/L/kg" nciodm:ExtCodeID="C112311">
                    <nciodm:CDISCDefinition>Hours times picomoles per liter (area under the curve), divided by kilograms (weight).</nciodm:CDISCDefinition>
                    <nciodm:PreferredTerm>Hour Times Picomole Per Liter Per Kilogram</nciodm:PreferredTerm>
                </EnumeratedItem>
                <EnumeratedItem CodedValue="h*pmol/L/m2" nciodm:ExtCodeID="C111231">
                    <nciodm:CDISCDefinition>Hours times picomoles per liter (area under the curve), divided by meters squared (surface area).</nciodm:CDISCDefinition>
                    <nciodm:PreferredTerm>Hour Times Picomole per Liter per Meter Squared</nciodm:PreferredTerm>
                </EnumeratedItem>
                <EnumeratedItem CodedValue="h*ug/mL" nciodm:ExtCodeID="C85615">
                    <nciodm:CDISCDefinition>Hours times micrograms per milliliter (area under the curve).</nciodm:CDISCDefinition>
                    <nciodm:PreferredTerm>Hour Times Microgram per Milliliter</nciodm:PreferredTerm>
                </EnumeratedItem>
                <EnumeratedItem CodedValue="h*ug/mL/(kg/m2)" nciodm:ExtCodeID="C111214">
                    <nciodm:CDISCDefinition>Hours times micrograms per milliliter (area under the curve), divided by kilograms per meter squared (body mass index).</nciodm:CDISCDefinition>
                    <nciodm:PreferredTerm>Hour Times Microgram per Milliliter per Kilogram per Meter Squared</nciodm:PreferredTerm>
                </EnumeratedItem>
                <EnumeratedItem CodedValue="h*ug/mL/(mg/g)" nciodm:ExtCodeID="C117934">
                    <nciodm:CDISCDefinition>Hours times micrograms per milliliter (area under the curve), divided by milligrams per gram (dose normalized by body weight).</nciodm:CDISCDefinition>
                    <nciodm:PreferredTerm>Hour Times Microgram Per Milliliter Per Milligram Per Gram</nciodm:PreferredTerm>
                </EnumeratedItem>
                <EnumeratedItem CodedValue="h*ug/mL/(mg/g/day)" nciodm:ExtCodeID="C117935">
                    <nciodm:CDISCDefinition>Hours times micrograms per milliliter (area under the curve), divided by milligrams per gram per day (daily dose normalized by body weight).</nciodm:CDISCDefinition>
                    <nciodm:PreferredTerm>Hour Times Microgram Per Milliliter Per Milligram Per Gram Per Day</nciodm:PreferredTerm>
                </EnumeratedItem>
                <EnumeratedItem CodedValue="h*ug/mL/(mg/kg)" nciodm:ExtCodeID="C105466">
                    <nciodm:CDISCSynonym>h*ug/mL/(ug/g)</nciodm:CDISCSynonym>
                    <nciodm:CDISCDefinition>Hours times micrograms per milliliter (area under the curve), divided by milligrams per kilogram (dose normalized by body weight).</nciodm:CDISCDefinition>
                    <nciodm:PreferredTerm>Hour Times Microgram Per Milliliter Per Milligram Per Kilogram</nciodm:PreferredTerm>
                </EnumeratedItem>
                <EnumeratedItem CodedValue="h*ug/mL/(mg/kg/day)" nciodm:ExtCodeID="C105467">
                    <nciodm:CDISCSynonym>h*ug/mL/(ug/g/day)</nciodm:CDISCSynonym>
                    <nciodm:CDISCDefinition>Hours times micrograms per milliliter (area under the curve), divided by milligrams per kilogram per day (daily dose normalized by body weight).</nciodm:CDISCDefinition>
                    <nciodm:PreferredTerm>Hour Times Microgram Per Milliliter Per Milligram Per Kilogram Per Day</nciodm:PreferredTerm>
                </EnumeratedItem>
                <EnumeratedItem CodedValue="h*ug/mL/g" nciodm:ExtCodeID="C112302">
                    <nciodm:CDISCDefinition>Hours times micrograms per milliliter (area under the curve), divided by grams (weight).</nciodm:CDISCDefinition>
                    <nciodm:PreferredTerm>Hour Times Microgram Per Milliliter Per Gram</nciodm:PreferredTerm>
                </EnumeratedItem>
                <EnumeratedItem CodedValue="h*ug/mL/kg" nciodm:ExtCodeID="C112303">
                    <nciodm:CDISCDefinition>Hours times micrograms per milliliter (area under the curve), divided by kilograms (weight).</nciodm:CDISCDefinition>
                    <nciodm:PreferredTerm>Hour Times Microgram Per Milliliter Per Kilogram</nciodm:PreferredTerm>
                </EnumeratedItem>
                <EnumeratedItem CodedValue="h*ug/mL/m2" nciodm:ExtCodeID="C111215">
                    <nciodm:CDISCDefinition>Hours times micrograms per milliliter (area under the curve), divided by meters squared (surface area).</nciodm:CDISCDefinition>
                    <nciodm:PreferredTerm>Hour Times Microgram per Milliliter per Meter Squared</nciodm:PreferredTerm>
                </EnumeratedItem>
                <EnumeratedItem CodedValue="h*ug/mL/mg" nciodm:ExtCodeID="C85617">
                    <nciodm:CDISCSynonym>h*mcg/mL/mg</nciodm:CDISCSynonym>
                    <nciodm:CDISCSynonym>h*ug/mg/mL</nciodm:CDISCSynonym>
                    <nciodm:CDISCSynonym>ug*h/mL/mg</nciodm:CDISCSynonym>
                    <nciodm:CDISCSynonym>ug*h/mg/mL</nciodm:CDISCSynonym>
                    <nciodm:CDISCDefinition>Hours times micrograms per milliliter (area under the curve), divided by milligrams (dose).</nciodm:CDISCDefinition>
                    <nciodm:PreferredTerm>Hour Times Microgram per Milliliter per Milligram</nciodm:PreferredTerm>
                </EnumeratedItem>
                <EnumeratedItem CodedValue="h*umol/L" nciodm:ExtCodeID="C85632">
                    <nciodm:CDISCDefinition>Hours times micromoles per liter (area under the curve).</nciodm:CDISCDefinition>
                    <nciodm:PreferredTerm>Hour Times Nanomole per Milliliter</nciodm:PreferredTerm>
                </EnumeratedItem>
                <EnumeratedItem CodedValue="h*umol/L/(kg/m2)" nciodm:ExtCodeID="C111216">
                    <nciodm:CDISCDefinition>Hours times micromoles per liter (area under the curve), divided by kilograms per meter squared (body mass index).</nciodm:CDISCDefinition>
                    <nciodm:PreferredTerm>Hour Times Micromole per Liter per Kilogram per Meter Squared</nciodm:PreferredTerm>
                </EnumeratedItem>
                <EnumeratedItem CodedValue="h*umol/L/(mg/g)" nciodm:ExtCodeID="C117936">
                    <nciodm:CDISCDefinition>Hours times micromoles per liter (area under the curve), divided by milligrams per gram (dose normalized by body weight).</nciodm:CDISCDefinition>
                    <nciodm:PreferredTerm>Hour Times Micromole Per Liter Per Milligram Per Gram</nciodm:PreferredTerm>
                </EnumeratedItem>
                <EnumeratedItem CodedValue="h*umol/L/(mg/g/day)" nciodm:ExtCodeID="C117937">
                    <nciodm:CDISCDefinition>Hours times micromoles per liter (area under the curve), divided by milligrams per gram per day (daily dose normalized by body weight).</nciodm:CDISCDefinition>
                    <nciodm:PreferredTerm>Hour Times Micromole Per Liter Per Milligram Per Gram Per Day</nciodm:PreferredTerm>
                </EnumeratedItem>
                <EnumeratedItem CodedValue="h*umol/L/g" nciodm:ExtCodeID="C116063">
                    <nciodm:CDISCDefinition>Hours times micromoles per liter (area under the curve), divided by grams (dose or weight).</nciodm:CDISCDefinition>
                    <nciodm:PreferredTerm>Hour Times Micromole per liter per Gram</nciodm:PreferredTerm>
                </EnumeratedItem>
                <EnumeratedItem CodedValue="h*umol/L/kg" nciodm:ExtCodeID="C112304">
                    <nciodm:CDISCDefinition>Hours times micromoles per liter (area under the curve), divided by kilograms (weight).</nciodm:CDISCDefinition>
                    <nciodm:PreferredTerm>Hour Times Micromole Per Liter Per Kilogram</nciodm:PreferredTerm>
                </EnumeratedItem>
                <EnumeratedItem CodedValue="h*umol/L/m2" nciodm:ExtCodeID="C111217">
                    <nciodm:CDISCDefinition>Hours times micromoles per liter (area under the curve), divided by meters squared (surface area).</nciodm:CDISCDefinition>
                    <nciodm:PreferredTerm>Hour Times Micromole per Liter per Meter Squared</nciodm:PreferredTerm>
                </EnumeratedItem>
                <EnumeratedItem CodedValue="h2*mg/mL" nciodm:ExtCodeID="C85606">
                    <nciodm:CDISCSynonym>h*h*mg/mL</nciodm:CDISCSynonym>
                    <nciodm:CDISCSynonym>h2*g/L</nciodm:CDISCSynonym>
                    <nciodm:CDISCSynonym>h2*ug/uL</nciodm:CDISCSynonym>
                    <nciodm:CDISCSynonym>h^2*mg/mL</nciodm:CDISCSynonym>
                    <nciodm:CDISCSynonym>mg*h2/mL</nciodm:CDISCSynonym>
                    <nciodm:CDISCDefinition>Hours squared times milligrams per milliliter.</nciodm:CDISCDefinition>
                    <nciodm:PreferredTerm>Hour Squared Times Milligram per Milliliter</nciodm:PreferredTerm>
                </EnumeratedItem>
                <EnumeratedItem CodedValue="h2*mmol/L" nciodm:ExtCodeID="C85605">
                    <nciodm:CDISCDefinition>Hours squared times millimoles per liter (area under the moment curve).</nciodm:CDISCDefinition>
                    <nciodm:PreferredTerm>Hour Squared Times Micromole per Milliliter</nciodm:PreferredTerm>
                </EnumeratedItem>
                <EnumeratedItem CodedValue="h2*mol/L" nciodm:ExtCodeID="C85607">
                    <nciodm:CDISCDefinition>Hours squared times moles per liter (area under the moment curve).</nciodm:CDISCDefinition>
                    <nciodm:PreferredTerm>Hour Squared Times Millimole per Milliliter</nciodm:PreferredTerm>
                </EnumeratedItem>
                <EnumeratedItem CodedValue="h2*ng/mL" nciodm:ExtCodeID="C85608">
                    <nciodm:CDISCSynonym>h*h*ng/mL</nciodm:CDISCSynonym>
                    <nciodm:CDISCSynonym>h2*ug/L</nciodm:CDISCSynonym>
                    <nciodm:CDISCSynonym>h^2*ng/mL</nciodm:CDISCSynonym>
                    <nciodm:CDISCSynonym>ng*h2/mL</nciodm:CDISCSynonym>
                    <nciodm:CDISCDefinition>Hours squared times nanograms per milliliter.</nciodm:CDISCDefinition>
                    <nciodm:PreferredTerm>Hour Squared Times Nanogram per Milliliter</nciodm:PreferredTerm>
                </EnumeratedItem>
                <EnumeratedItem CodedValue="h2*nmol/L" nciodm:ExtCodeID="C85610">
                    <nciodm:CDISCDefinition>Hours squared times nanomoles per liter (area under the moment curve).</nciodm:CDISCDefinition>
                    <nciodm:PreferredTerm>Hour Squared Times Picomole per Milliliter</nciodm:PreferredTerm>
                </EnumeratedItem>
                <EnumeratedItem CodedValue="h2*pg/mL" nciodm:ExtCodeID="C85609">
                    <nciodm:CDISCSynonym>h*h*pg/mL</nciodm:CDISCSynonym>
                    <nciodm:CDISCSynonym>h2*ng/L</nciodm:CDISCSynonym>
                    <nciodm:CDISCSynonym>h^2*pg/mL</nciodm:CDISCSynonym>
                    <nciodm:CDISCSynonym>pg*h2/mL</nciodm:CDISCSynonym>
                    <nciodm:CDISCDefinition>Hours squared times picogram per milliliter.</nciodm:CDISCDefinition>
                    <nciodm:PreferredTerm>Hour Squared Times Picogram per Milliliter</nciodm:PreferredTerm>
                </EnumeratedItem>
                <EnumeratedItem CodedValue="h2*pmol/L" nciodm:ExtCodeID="C106529">
                    <nciodm:CDISCDefinition>Hours squared times picomoles per liter (area under the moment curve).</nciodm:CDISCDefinition>
                    <nciodm:PreferredTerm>Hour Squared Times Picomole Per Liter</nciodm:PreferredTerm>
                </EnumeratedItem>
                <EnumeratedItem CodedValue="h2*ug/mL" nciodm:ExtCodeID="C85604">
                    <nciodm:CDISCSynonym>h*h*ug/mL</nciodm:CDISCSynonym>
                    <nciodm:CDISCSynonym>h2*mcg/mL</nciodm:CDISCSynonym>
                    <nciodm:CDISCSynonym>h2*mg/L</nciodm:CDISCSynonym>
                    <nciodm:CDISCSynonym>h^2*ug/mL</nciodm:CDISCSynonym>
                    <nciodm:CDISCSynonym>ug*h2/mL</nciodm:CDISCSynonym>
                    <nciodm:CDISCDefinition>Hours squared times micrograms per milliliter.</nciodm:CDISCDefinition>
                    <nciodm:PreferredTerm>Hour Squared Times Microgram per Milliliter</nciodm:PreferredTerm>
                </EnumeratedItem>
                <EnumeratedItem CodedValue="h2*umol/L" nciodm:ExtCodeID="C106528">
                    <nciodm:CDISCDefinition>Hours squared times micromoles per liter (area under the moment curve).</nciodm:CDISCDefinition>
                    <nciodm:PreferredTerm>Hour Squared Times Micromole Per Liter</nciodm:PreferredTerm>
                </EnumeratedItem>
                <EnumeratedItem CodedValue="IU/day" nciodm:ExtCodeID="C85645">
                    <nciodm:CDISCSynonym>IU/d</nciodm:CDISCSynonym>
                    <nciodm:CDISCDefinition>International units per day.</nciodm:CDISCDefinition>
                    <nciodm:PreferredTerm>International Unit per Day</nciodm:PreferredTerm>
                </EnumeratedItem>
                <EnumeratedItem CodedValue="IU/h" nciodm:ExtCodeID="C85646">
                    <nciodm:CDISCSynonym>IU/h</nciodm:CDISCSynonym>
                    <nciodm:CDISCDefinition>International units per hour.</nciodm:CDISCDefinition>
                    <nciodm:PreferredTerm>International Unit per Hour</nciodm:PreferredTerm>
                </EnumeratedItem>
                <EnumeratedItem CodedValue="IU/min" nciodm:ExtCodeID="C85647">
                    <nciodm:CDISCSynonym>IU/min</nciodm:CDISCSynonym>
                    <nciodm:CDISCDefinition>International units per minute.</nciodm:CDISCDefinition>
                    <nciodm:PreferredTerm>International Unit per Minute</nciodm:PreferredTerm>
                </EnumeratedItem>
                <EnumeratedItem CodedValue="IU/mL" nciodm:ExtCodeID="C67377">
                    <nciodm:CDISCSynonym>IE/mL</nciodm:CDISCSynonym>
                    <nciodm:CDISCSynonym>International Unit per Milliliter</nciodm:CDISCSynonym>
                    <nciodm:CDISCSynonym>Kilo International Unit per Liter</nciodm:CDISCSynonym>
                    <nciodm:CDISCSynonym>kIU/L</nciodm:CDISCSynonym>
                    <nciodm:CDISCDefinition>A unit of concentration (biologic activity) equal to one international unit of substance per milliliter of solution.</nciodm:CDISCDefinition>
                    <nciodm:PreferredTerm>International Unit per Milliliter</nciodm:PreferredTerm>
                </EnumeratedItem>
                <EnumeratedItem CodedValue="IU/mL/(kg/m2)" nciodm:ExtCodeID="C119366">
                    <nciodm:CDISCDefinition>International units per milliliter (concentration), divided by kilograms per meter squared (body mass index).</nciodm:CDISCDefinition>
                    <nciodm:PreferredTerm>International Unit per Milliliter per Kilogram per Meter Squared</nciodm:PreferredTerm>
                </EnumeratedItem>
                <EnumeratedItem CodedValue="IU/mL/(mg/day)" nciodm:ExtCodeID="C119367">
                    <nciodm:CDISCDefinition>International units per milliliter (concentration), divided by milligrams per day (daily dose).</nciodm:CDISCDefinition>
                    <nciodm:PreferredTerm>International Unit per Milliliter per Milligram per Day</nciodm:PreferredTerm>
                </EnumeratedItem>
                <EnumeratedItem CodedValue="IU/mL/(mg/kg)" nciodm:ExtCodeID="C119368">
                    <nciodm:CDISCDefinition>International units per milliliter (concentration), divided by milligrams per kilogram.</nciodm:CDISCDefinition>
                    <nciodm:PreferredTerm>International Unit per Milliliter per Milligram per Kilogram</nciodm:PreferredTerm>
                </EnumeratedItem>
                <EnumeratedItem CodedValue="IU/mL/(mg/kg/day)" nciodm:ExtCodeID="C119369">
                    <nciodm:CDISCDefinition>International units per milliliter (concentration), divided by milligrams per kilogram per day.</nciodm:CDISCDefinition>
                    <nciodm:PreferredTerm>International Unit per Milliliter per Milligram per Kilogram per Day</nciodm:PreferredTerm>
                </EnumeratedItem>
                <EnumeratedItem CodedValue="IU/mL/(mg/m2)" nciodm:ExtCodeID="C119370">
                    <nciodm:CDISCDefinition>International units per milliliter (concentration), divided by milligrams per meter squared.</nciodm:CDISCDefinition>
                    <nciodm:PreferredTerm>International Unit per Milliliter per Milligram per Meter Squared</nciodm:PreferredTerm>
                </EnumeratedItem>
                <EnumeratedItem CodedValue="IU/mL/(mg/m2/day)" nciodm:ExtCodeID="C119371">
                    <nciodm:CDISCDefinition>International units per milliliter (concentration), divided by milligrams per meter squared per day (daily dose normalized by surface area).</nciodm:CDISCDefinition>
                    <nciodm:PreferredTerm>International Unit per Milliliter per Milligram per Meter Squared per Day</nciodm:PreferredTerm>
                </EnumeratedItem>
                <EnumeratedItem CodedValue="IU/mL/(ug/day)" nciodm:ExtCodeID="C119372">
                    <nciodm:CDISCDefinition>International units per milliliter (concentration), divided by micrograms per day (daily dose).</nciodm:CDISCDefinition>
                    <nciodm:PreferredTerm>International Unit per Milliliter per Microgram per Day</nciodm:PreferredTerm>
                </EnumeratedItem>
                <EnumeratedItem CodedValue="IU/mL/(ug/kg)" nciodm:ExtCodeID="C119373">
                    <nciodm:CDISCDefinition>International units per milliliter (concentration), divided by micrograms per kilogram.</nciodm:CDISCDefinition>
                    <nciodm:PreferredTerm>International Unit per Milliliter per Microgram per Kilogram</nciodm:PreferredTerm>
                </EnumeratedItem>
                <EnumeratedItem CodedValue="IU/mL/(ug/kg/day)" nciodm:ExtCodeID="C119374">
                    <nciodm:CDISCDefinition>International units per milliliter (concentration), divided by micrograms per kilogram per day.</nciodm:CDISCDefinition>
                    <nciodm:PreferredTerm>International Unit per Milliliter per Microgram per Kilogram per Day</nciodm:PreferredTerm>
                </EnumeratedItem>
                <EnumeratedItem CodedValue="IU/mL/(ug/m2)" nciodm:ExtCodeID="C119375">
                    <nciodm:CDISCDefinition>International units per milliliter (concentration), divided by micrograms per meter squared.</nciodm:CDISCDefinition>
                    <nciodm:PreferredTerm>International Unit per Milliliter per Microgram per Meter Squared</nciodm:PreferredTerm>
                </EnumeratedItem>
                <EnumeratedItem CodedValue="IU/mL/(ug/m2/day)" nciodm:ExtCodeID="C119376">
                    <nciodm:CDISCDefinition>International units per milliliter (concentration), divided by micrograms per meter squared per day (daily dose normalized by surface area).</nciodm:CDISCDefinition>
                    <nciodm:PreferredTerm>International Unit per Milliliter per Microgram per Meter Squared per Day</nciodm:PreferredTerm>
                </EnumeratedItem>
                <EnumeratedItem CodedValue="IU/mL/g" nciodm:ExtCodeID="C119377">
                    <nciodm:CDISCDefinition>International units per milliliter (concentration), divided by grams (weight).</nciodm:CDISCDefinition>
                    <nciodm:PreferredTerm>International Unit per Milliliter per Gram</nciodm:PreferredTerm>
                </EnumeratedItem>
                <EnumeratedItem CodedValue="IU/mL/kg" nciodm:ExtCodeID="C119378">
                    <nciodm:CDISCDefinition>International units per milliliter (concentration), divided by kilograms (weight).</nciodm:CDISCDefinition>
                    <nciodm:PreferredTerm>International Unit per Milliliter per Kilogram</nciodm:PreferredTerm>
                </EnumeratedItem>
                <EnumeratedItem CodedValue="IU/mL/m2" nciodm:ExtCodeID="C119379">
                    <nciodm:CDISCDefinition>International units per milliliter (concentration), divided by meters squared (surface area).</nciodm:CDISCDefinition>
                    <nciodm:PreferredTerm>International Unit per Milliliter per Meter Squared</nciodm:PreferredTerm>
                </EnumeratedItem>
                <EnumeratedItem CodedValue="IU/mL/mg" nciodm:ExtCodeID="C119380">
                    <nciodm:CDISCDefinition>International units per milliliter (concentration), divided by milligrams (dose).</nciodm:CDISCDefinition>
                    <nciodm:PreferredTerm>International Unit per Milliliter per Milligram</nciodm:PreferredTerm>
                </EnumeratedItem>
                <EnumeratedItem CodedValue="IU/mL/ug" nciodm:ExtCodeID="C119381">
                    <nciodm:CDISCDefinition>International units per milliliter (concentration), divided by micrograms (dose).</nciodm:CDISCDefinition>
                    <nciodm:PreferredTerm>International Unit per Milliliter per Microgram</nciodm:PreferredTerm>
                </EnumeratedItem>
                <EnumeratedItem CodedValue="L" nciodm:ExtCodeID="C48505">
                    <nciodm:CDISCSynonym>Liter</nciodm:CDISCSynonym>
                    <nciodm:CDISCDefinition>A unit of volume equal to a cubic decimeter, or one thousandth of cubic meter, or 1000 cubic centimeters, or approximately 61.023 744 cubic inches.(NCI)</nciodm:CDISCDefinition>
                    <nciodm:PreferredTerm>Liter</nciodm:PreferredTerm>
                </EnumeratedItem>
                <EnumeratedItem CodedValue="L/(kg/m2)" nciodm:ExtCodeID="C120806">
                    <nciodm:CDISCDefinition>Liters (volume), divided by kilograms per meter squared (body mass index).</nciodm:CDISCDefinition>
                    <nciodm:PreferredTerm>Liter per Kilogram per Meter Squared</nciodm:PreferredTerm>
                </EnumeratedItem>
                <EnumeratedItem CodedValue="L/(mg/kg)" nciodm:ExtCodeID="C120807">
                    <nciodm:CDISCDefinition>Liters (volume), divided by milligrams per kilogram (dose normalized by body weight).</nciodm:CDISCDefinition>
                    <nciodm:PreferredTerm>Liter per Milligram per Kilogram</nciodm:PreferredTerm>
                </EnumeratedItem>
                <EnumeratedItem CodedValue="L/(mg/kg/day)" nciodm:ExtCodeID="C120808">
                    <nciodm:CDISCDefinition>Liters (volume), divided by milligrams per kilogram per day (daily dose normalized by body weight).</nciodm:CDISCDefinition>
                    <nciodm:PreferredTerm>Liter per Milligram per Kilogram per Day</nciodm:PreferredTerm>
                </EnumeratedItem>
                <EnumeratedItem CodedValue="L/(mg/m2/day)" nciodm:ExtCodeID="C120809">
                    <nciodm:CDISCDefinition>Liters (volume), divided by milligrams per meter squared per day (daily dose normalized by surface area).</nciodm:CDISCDefinition>
                    <nciodm:PreferredTerm>Liter per Milligram per Meter Squared per Day</nciodm:PreferredTerm>
                </EnumeratedItem>
                <EnumeratedItem CodedValue="L/(ug/kg)" nciodm:ExtCodeID="C120810">
                    <nciodm:CDISCDefinition>Liters (volume), divided by micrograms per kilogram (dose normalized by body weight).</nciodm:CDISCDefinition>
                    <nciodm:PreferredTerm>Liter per Microgram per Kilogram</nciodm:PreferredTerm>
                </EnumeratedItem>
                <EnumeratedItem CodedValue="L/(ug/kg/day)" nciodm:ExtCodeID="C120811">
                    <nciodm:CDISCDefinition>Liters (volume), divided by micrograms per kilogram per day (daily dose normalized by body weight).</nciodm:CDISCDefinition>
                    <nciodm:PreferredTerm>Liter per Microgram per Kilogram per Day</nciodm:PreferredTerm>
                </EnumeratedItem>
                <EnumeratedItem CodedValue="L/(ug/m2)" nciodm:ExtCodeID="C120812">
                    <nciodm:CDISCDefinition>Liters (volume), divided by micrograms per meter squared (dose normalized by surface area).</nciodm:CDISCDefinition>
                    <nciodm:PreferredTerm>Liter per Microgram per Meter Squared</nciodm:PreferredTerm>
                </EnumeratedItem>
                <EnumeratedItem CodedValue="L/(ug/m2/day)" nciodm:ExtCodeID="C120813">
                    <nciodm:CDISCDefinition>Liters (volume), divided by micrograms per meter squared per day (daily dose normalized by surface area).</nciodm:CDISCDefinition>
                    <nciodm:PreferredTerm>Liter per Microgram per Meter Squared per Day</nciodm:PreferredTerm>
                </EnumeratedItem>
                <EnumeratedItem CodedValue="L/day" nciodm:ExtCodeID="C69110">
                    <nciodm:CDISCDefinition>A unit of flow rate, defined as a rate of one liter per day.</nciodm:CDISCDefinition>
                    <nciodm:PreferredTerm>Liter per Day</nciodm:PreferredTerm>
                </EnumeratedItem>
                <EnumeratedItem CodedValue="L/h" nciodm:ExtCodeID="C69160">
                    <nciodm:CDISCSynonym>L/h</nciodm:CDISCSynonym>
                    <nciodm:CDISCDefinition>Liters per hour.</nciodm:CDISCDefinition>
                    <nciodm:PreferredTerm>Liter per Hour</nciodm:PreferredTerm>
                </EnumeratedItem>
                <EnumeratedItem CodedValue="L/kg/day" nciodm:ExtCodeID="C73755">
                    <nciodm:CDISCSynonym>L/day/kg</nciodm:CDISCSynonym>
                    <nciodm:CDISCSynonym>L/kg/d</nciodm:CDISCSynonym>
                    <nciodm:CDISCSynonym>Milliliter per Gram per Day</nciodm:CDISCSynonym>
                    <nciodm:CDISCSynonym>mL/day/g</nciodm:CDISCSynonym>
                    <nciodm:CDISCSynonym>mL/g/day</nciodm:CDISCSynonym>
                    <nciodm:CDISCSynonym>uL/day/mg</nciodm:CDISCSynonym>
                    <nciodm:CDISCSynonym>uL/mg/day</nciodm:CDISCSynonym>
                    <nciodm:CDISCDefinition>Liters per kilogram per day.</nciodm:CDISCDefinition>
                    <nciodm:PreferredTerm>Milliliter per Gram per Day</nciodm:PreferredTerm>
                </EnumeratedItem>
                <EnumeratedItem CodedValue="L/kg/h" nciodm:ExtCodeID="C73756">
                    <nciodm:CDISCSynonym>Milliliter per Gram per Hour</nciodm:CDISCSynonym>
                    <nciodm:CDISCDefinition>Milliliters per gram per hour.</nciodm:CDISCDefinition>
                    <nciodm:PreferredTerm>Milliliter per Gram per Hour</nciodm:PreferredTerm>
                </EnumeratedItem>
                <EnumeratedItem CodedValue="L/kg/min" nciodm:ExtCodeID="C73757">
                    <nciodm:CDISCSynonym>Milliliter per Gram per Minute</nciodm:CDISCSynonym>
                    <nciodm:CDISCDefinition>Milliliters per gram per minute.</nciodm:CDISCDefinition>
                    <nciodm:PreferredTerm>Milliliter per Gram per Minute</nciodm:PreferredTerm>
                </EnumeratedItem>
                <EnumeratedItem CodedValue="L/m2" nciodm:ExtCodeID="C120814">
                    <nciodm:CDISCDefinition>Liters (volume), divided by meters squared (surface area).</nciodm:CDISCDefinition>
                    <nciodm:PreferredTerm>Liter per Meter Squared</nciodm:PreferredTerm>
                </EnumeratedItem>
                <EnumeratedItem CodedValue="L/min" nciodm:ExtCodeID="C67388">
                    <nciodm:CDISCSynonym>Liters per Minute</nciodm:CDISCSynonym>
                    <nciodm:CDISCDefinition>A unit of volumetric flow rate defined as the rate at which one liter of matter travels during the period of time equal to one minute.(NCI)</nciodm:CDISCDefinition>
                    <nciodm:PreferredTerm>Liter per Minute</nciodm:PreferredTerm>
                </EnumeratedItem>
                <EnumeratedItem CodedValue="L/ug" nciodm:ExtCodeID="C120815">
                    <nciodm:CDISCDefinition>Liters (volume), divided by micrograms (dose).</nciodm:CDISCDefinition>
                    <nciodm:PreferredTerm>Liter per Microgram</nciodm:PreferredTerm>
                </EnumeratedItem>
                <EnumeratedItem CodedValue="mg" nciodm:ExtCodeID="C28253">
                    <nciodm:CDISCSynonym>Milligram</nciodm:CDISCSynonym>
                    <nciodm:CDISCDefinition>The unit of mass equal to one thousandth of a gram or 1000 micrograms. One milligram equals approximately 0.015432 grain or 35.274 x 10E-6 ounce.(NCI)</nciodm:CDISCDefinition>
                    <nciodm:PreferredTerm>Milligram</nciodm:PreferredTerm>
                </EnumeratedItem>
                <EnumeratedItem CodedValue="mg/day" nciodm:ExtCodeID="C67399">
                    <nciodm:CDISCSynonym>Milligram per Day</nciodm:CDISCSynonym>
                    <nciodm:CDISCDefinition>A unit of measure referring to the ratio between mass expressed in milligrams per day.(NCI)</nciodm:CDISCDefinition>
                    <nciodm:PreferredTerm>Milligram per 24 Hours</nciodm:PreferredTerm>
                </EnumeratedItem>
                <EnumeratedItem CodedValue="mg/h" nciodm:ExtCodeID="C66969">
                    <nciodm:CDISCSynonym>Milligram per Hour</nciodm:CDISCSynonym>
                    <nciodm:CDISCDefinition>A unit of mass flow rate equivalent to the rate at which one thousandth of a gram of matter travels to a given object or space over a period of time equal to one hour.(NCI)</nciodm:CDISCDefinition>
                    <nciodm:PreferredTerm>Milligram per Hour</nciodm:PreferredTerm>
                </EnumeratedItem>
                <EnumeratedItem CodedValue="mg/min" nciodm:ExtCodeID="C73742">
                    <nciodm:CDISCSynonym>Milligram per Minute</nciodm:CDISCSynonym>
                    <nciodm:CDISCDefinition>Milligrams per minute.</nciodm:CDISCDefinition>
                    <nciodm:PreferredTerm>Milligram per Minute</nciodm:PreferredTerm>
                </EnumeratedItem>
                <EnumeratedItem CodedValue="mg/mL" nciodm:ExtCodeID="C42576">
                    <nciodm:CDISCSynonym>Gram per Liter</nciodm:CDISCSynonym>
                    <nciodm:CDISCSynonym>Kilogram per Cubic Meter</nciodm:CDISCSynonym>
                    <nciodm:CDISCSynonym>Microgram per Microliter</nciodm:CDISCSynonym>
                    <nciodm:CDISCSynonym>Milligram per Milliliter</nciodm:CDISCSynonym>
                    <nciodm:CDISCSynonym>g/L</nciodm:CDISCSynonym>
                    <nciodm:CDISCSynonym>kg/m3</nciodm:CDISCSynonym>
                    <nciodm:CDISCSynonym>mg/mL</nciodm:CDISCSynonym>
                    <nciodm:CDISCSynonym>ug/uL</nciodm:CDISCSynonym>
                    <nciodm:CDISCDefinition>A unit of concentration or mass density equal to one milligram of substance per milliliter of solution or one gram of substance per liter of solution.</nciodm:CDISCDefinition>
                    <nciodm:PreferredTerm>Kilogram per Cubic Meter</nciodm:PreferredTerm>
                </EnumeratedItem>
                <EnumeratedItem CodedValue="mg/mL/(kg/m2)" nciodm:ExtCodeID="C119382">
                    <nciodm:CDISCDefinition>Milligrams per milliliter (concentration), divided by kilograms per meter squared (body mass index).</nciodm:CDISCDefinition>
                    <nciodm:PreferredTerm>Milligram per Milliliter per Kilogram per Meter Squared</nciodm:PreferredTerm>
                </EnumeratedItem>
                <EnumeratedItem CodedValue="mg/mL/(mg/day)" nciodm:ExtCodeID="C119383">
                    <nciodm:CDISCDefinition>Milligrams per milliliter (concentration), divided by milligrams per day (daily dose).</nciodm:CDISCDefinition>
                    <nciodm:PreferredTerm>Milligram per Milliliter per Milligram per Day</nciodm:PreferredTerm>
                </EnumeratedItem>
                <EnumeratedItem CodedValue="mg/mL/(mg/kg)" nciodm:ExtCodeID="C105475">
                    <nciodm:CDISCDefinition>Milligrams per milliliter (concentration), divided by milligrams per kilogram (dose normalized by body weight).</nciodm:CDISCDefinition>
                    <nciodm:PreferredTerm>Milligram Per Milliliter Per Milligram Per Kilogram</nciodm:PreferredTerm>
                </EnumeratedItem>
                <EnumeratedItem CodedValue="mg/mL/(mg/kg/day)" nciodm:ExtCodeID="C105476">
                    <nciodm:CDISCDefinition>Milligrams per milliliter (concentration), divided by milligrams per kilogram per day (daily dose normalized by body weight).</nciodm:CDISCDefinition>
                    <nciodm:PreferredTerm>Milligram Per Milliliter Per Milligram Per Kilogram Per Day</nciodm:PreferredTerm>
                </EnumeratedItem>
                <EnumeratedItem CodedValue="mg/mL/(mg/m2)" nciodm:ExtCodeID="C119384">
                    <nciodm:CDISCDefinition>Milligrams per milliliter (concentration), divided by milligrams per meter squared.</nciodm:CDISCDefinition>
                    <nciodm:PreferredTerm>Milligram per Milliliter per Milligram per Meter Squared</nciodm:PreferredTerm>
                </EnumeratedItem>
                <EnumeratedItem CodedValue="mg/mL/(mg/m2/day)" nciodm:ExtCodeID="C119385">
                    <nciodm:CDISCDefinition>Milligrams per milliliter (concentration), divided by milligrams per meter squared per day (daily dose normalized by surface area).</nciodm:CDISCDefinition>
                    <nciodm:PreferredTerm>Milligram per Milliliter per Milligram per Meter Squared per Day</nciodm:PreferredTerm>
                </EnumeratedItem>
                <EnumeratedItem CodedValue="mg/mL/(ug/day)" nciodm:ExtCodeID="C119386">
                    <nciodm:CDISCDefinition>Milligrams per milliliter (concentration), divided by micrograms per day (daily dose).</nciodm:CDISCDefinition>
                    <nciodm:PreferredTerm>Milligram per Milliliter per Microgram per Day</nciodm:PreferredTerm>
                </EnumeratedItem>
                <EnumeratedItem CodedValue="mg/mL/(ug/kg)" nciodm:ExtCodeID="C119387">
                    <nciodm:CDISCDefinition>Milligrams per milliliter (concentration), divided by micrograms per kilogram.</nciodm:CDISCDefinition>
                    <nciodm:PreferredTerm>Milligram per Milliliter per Microgram per Kilogram</nciodm:PreferredTerm>
                </EnumeratedItem>
                <EnumeratedItem CodedValue="mg/mL/(ug/kg/day)" nciodm:ExtCodeID="C119388">
                    <nciodm:CDISCDefinition>Milligrams per milliliter (concentration), divided by micrograms per kilogram per day.</nciodm:CDISCDefinition>
                    <nciodm:PreferredTerm>Milligram per Milliliter per Microgram per Kilogram per Day</nciodm:PreferredTerm>
                </EnumeratedItem>
                <EnumeratedItem CodedValue="mg/mL/(ug/m2)" nciodm:ExtCodeID="C119389">
                    <nciodm:CDISCDefinition>Milligrams per milliliter (concentration), divided by micrograms per meter squared.</nciodm:CDISCDefinition>
                    <nciodm:PreferredTerm>Milligram per Milliliter per Microgram per Meter Squared</nciodm:PreferredTerm>
                </EnumeratedItem>
                <EnumeratedItem CodedValue="mg/mL/(ug/m2/day)" nciodm:ExtCodeID="C119390">
                    <nciodm:CDISCDefinition>Milligrams per milliliter (concentration), divided by micrograms per meter squared per day (daily dose normalized by surface area).</nciodm:CDISCDefinition>
                    <nciodm:PreferredTerm>Milligram per Milliliter per Microgram per Meter Squared per Day</nciodm:PreferredTerm>
                </EnumeratedItem>
                <EnumeratedItem CodedValue="mg/mL/g" nciodm:ExtCodeID="C119391">
                    <nciodm:CDISCDefinition>Milligrams per milliliter (concentration), divided by grams (weight).</nciodm:CDISCDefinition>
                    <nciodm:PreferredTerm>Milligram per Milliliter per Gram</nciodm:PreferredTerm>
                </EnumeratedItem>
                <EnumeratedItem CodedValue="mg/mL/h" nciodm:ExtCodeID="C85711">
                    <nciodm:CDISCSynonym>g/L/h</nciodm:CDISCSynonym>
                    <nciodm:CDISCSynonym>g/h/L</nciodm:CDISCSynonym>
                    <nciodm:CDISCSynonym>mg/h/mL</nciodm:CDISCSynonym>
                    <nciodm:CDISCSynonym>ug/h/uL</nciodm:CDISCSynonym>
                    <nciodm:CDISCSynonym>ug/uL/h</nciodm:CDISCSynonym>
                    <nciodm:CDISCDefinition>Milligrams per milliliter per hour.</nciodm:CDISCDefinition>
                    <nciodm:PreferredTerm>Milligram per Milliliter per Hour</nciodm:PreferredTerm>
                </EnumeratedItem>
                <EnumeratedItem CodedValue="mg/mL/kg" nciodm:ExtCodeID="C119392">
                    <nciodm:CDISCDefinition>Milligrams per milliliter (concentration), divided by kilograms (weight).</nciodm:CDISCDefinition>
                    <nciodm:PreferredTerm>Milligram per Milliliter per Kilogram</nciodm:PreferredTerm>
                </EnumeratedItem>
                <EnumeratedItem CodedValue="mg/mL/m2" nciodm:ExtCodeID="C119393">
                    <nciodm:CDISCDefinition>Milligrams per milliliter (concentration), divided by meters squared (surface area).</nciodm:CDISCDefinition>
                    <nciodm:PreferredTerm>Milligram per Milliliter per Meter Squared</nciodm:PreferredTerm>
                </EnumeratedItem>
                <EnumeratedItem CodedValue="mg/mL/mg" nciodm:ExtCodeID="C119394">
                    <nciodm:CDISCDefinition>Milligrams per milliliter (concentration), divided by milligrams (dose).</nciodm:CDISCDefinition>
                    <nciodm:PreferredTerm>Milligram per Milliliter per Milligram</nciodm:PreferredTerm>
                </EnumeratedItem>
                <EnumeratedItem CodedValue="mg/mL/ug" nciodm:ExtCodeID="C119395">
                    <nciodm:CDISCDefinition>Milligrams per milliliter (concentration), divided by micrograms (dose).</nciodm:CDISCDefinition>
                    <nciodm:PreferredTerm>Milligram per Milliliter per Microgram</nciodm:PreferredTerm>
                </EnumeratedItem>
                <EnumeratedItem CodedValue="min" nciodm:ExtCodeID="C48154">
                    <nciodm:CDISCSynonym>Minute Unit of Time</nciodm:CDISCSynonym>
                    <nciodm:CDISCDefinition>A unit measure of time equal to 60 seconds.(NCI)</nciodm:CDISCDefinition>
                    <nciodm:PreferredTerm>Minute</nciodm:PreferredTerm>
                </EnumeratedItem>
                <EnumeratedItem CodedValue="min*fg/mL" nciodm:ExtCodeID="C85724">
                    <nciodm:CDISCDefinition>Minutes times femtograms per milliliter (area under the curve).</nciodm:CDISCDefinition>
                    <nciodm:PreferredTerm>Minute Times Femtogram per Milliliter</nciodm:PreferredTerm>
                </EnumeratedItem>
                <EnumeratedItem CodedValue="min*fg/mL/(kg/m2)" nciodm:ExtCodeID="C111254">
                    <nciodm:CDISCDefinition>Minutes times femtograms per milliliter (area under the curve), divided by kilograms per meter squared (body mass index).</nciodm:CDISCDefinition>
                    <nciodm:PreferredTerm>Minute Times Femtogram per Milliliter per Kilogram per Meter Squared</nciodm:PreferredTerm>
                </EnumeratedItem>
                <EnumeratedItem CodedValue="min*fg/mL/(mg/g)" nciodm:ExtCodeID="C117938">
                    <nciodm:CDISCDefinition>Minutes times femtograms per milliliter (area under the curve), divided by milligrams per gram (dose normalized by body weight).</nciodm:CDISCDefinition>
                    <nciodm:PreferredTerm>Minute Times Femtogram Per Milliliter Per Milligram Per Gram</nciodm:PreferredTerm>
                </EnumeratedItem>
                <EnumeratedItem CodedValue="min*fg/mL/(mg/g/day)" nciodm:ExtCodeID="C117939">
                    <nciodm:CDISCDefinition>Minutes times femtograms per milliliter (area under the curve), divided by milligrams per gram per day (daily dose normalized by body weight).</nciodm:CDISCDefinition>
                    <nciodm:PreferredTerm>Minute Times Femtogram Per Milliliter Per Milligram Per Gram Per Day</nciodm:PreferredTerm>
                </EnumeratedItem>
                <EnumeratedItem CodedValue="min*fg/mL/g" nciodm:ExtCodeID="C112334">
                    <nciodm:CDISCDefinition>Minutes times femtograms per milliliter (area under the curve), divided by grams (weight).</nciodm:CDISCDefinition>
                    <nciodm:PreferredTerm>Minute Times Femtogram Per Milliliter Per Gram</nciodm:PreferredTerm>
                </EnumeratedItem>
                <EnumeratedItem CodedValue="min*fg/mL/kg" nciodm:ExtCodeID="C112335">
                    <nciodm:CDISCDefinition>Minutes times femtograms per milliliter (area under the curve), divided by kilograms (weight).</nciodm:CDISCDefinition>
                    <nciodm:PreferredTerm>Minute Times Femtogram Per Milliliter Per Kilogram</nciodm:PreferredTerm>
                </EnumeratedItem>
                <EnumeratedItem CodedValue="min*fg/mL/m2" nciodm:ExtCodeID="C111255">
                    <nciodm:CDISCDefinition>Minutes times femtograms per milliliter (area under the curve), divided by meters squared (surface area).</nciodm:CDISCDefinition>
                    <nciodm:PreferredTerm>Minute Times Femtogram per Milliliter per Meter Squared</nciodm:PreferredTerm>
                </EnumeratedItem>
                <EnumeratedItem CodedValue="min*g/mL" nciodm:ExtCodeID="C85725">
                    <nciodm:CDISCDefinition>Minutes times grams per milliliter (area under the curve).</nciodm:CDISCDefinition>
                    <nciodm:PreferredTerm>Minute Times Gram per Milliliter</nciodm:PreferredTerm>
                </EnumeratedItem>
                <EnumeratedItem CodedValue="min*g/mL/(kg/m2)" nciodm:ExtCodeID="C111256">
                    <nciodm:CDISCDefinition>Minutes times grams per milliliter (area under the curve), divided by kilograms per meter squared (body mass index).</nciodm:CDISCDefinition>
                    <nciodm:PreferredTerm>Minute Times Gram per Milliliter per Kilogram per Meter Squared</nciodm:PreferredTerm>
                </EnumeratedItem>
                <EnumeratedItem CodedValue="min*g/mL/(mg/g)" nciodm:ExtCodeID="C117940">
                    <nciodm:CDISCDefinition>Minutes times grams per milliliter (area under the curve), divided by milligrams per gram (dose normalized by body weight).</nciodm:CDISCDefinition>
                    <nciodm:PreferredTerm>Minute Times gram Per Milliliter Per Milligram Per Gram</nciodm:PreferredTerm>
                </EnumeratedItem>
                <EnumeratedItem CodedValue="min*g/mL/(mg/g/day)" nciodm:ExtCodeID="C117941">
                    <nciodm:CDISCDefinition>Minutes times grams per milliliter (area under the curve), divided by milligrams per gram per day (daily dose normalized by body weight).</nciodm:CDISCDefinition>
                    <nciodm:PreferredTerm>Minute Times gram Per Milliliter Per Milligram Per Gram Per Day</nciodm:PreferredTerm>
                </EnumeratedItem>
                <EnumeratedItem CodedValue="min*g/mL/g" nciodm:ExtCodeID="C112336">
                    <nciodm:CDISCDefinition>Minutes times grams per milliliter (area under the curve), divided by grams (weight).</nciodm:CDISCDefinition>
                    <nciodm:PreferredTerm>Minute Times Gram Per Milliliter Per Gram</nciodm:PreferredTerm>
                </EnumeratedItem>
                <EnumeratedItem CodedValue="min*g/mL/kg" nciodm:ExtCodeID="C112337">
                    <nciodm:CDISCDefinition>Minutes times grams per milliliter (area under the curve), divided by kilograms (weight).</nciodm:CDISCDefinition>
                    <nciodm:PreferredTerm>Minute Times Gram Per Milliliter Per Kilogram</nciodm:PreferredTerm>
                </EnumeratedItem>
                <EnumeratedItem CodedValue="min*g/mL/m2" nciodm:ExtCodeID="C111257">
                    <nciodm:CDISCDefinition>Minutes times grams per milliliter (area under the curve), divided by meters squared (surface area).</nciodm:CDISCDefinition>
                    <nciodm:PreferredTerm>Minute Times Gram per Milliliter per Meter Squared</nciodm:PreferredTerm>
                </EnumeratedItem>
                <EnumeratedItem CodedValue="min*mg/mL" nciodm:ExtCodeID="C85729">
                    <nciodm:CDISCDefinition>Minutes times milligrams per milliliter (area under the curve).</nciodm:CDISCDefinition>
                    <nciodm:PreferredTerm>Minute Times Milligram per Milliliter</nciodm:PreferredTerm>
                </EnumeratedItem>
                <EnumeratedItem CodedValue="min*mg/mL/(kg/m2)" nciodm:ExtCodeID="C111262">
                    <nciodm:CDISCDefinition>Minutes times milligrams per milliliter (area under the curve), divided by kilograms per meter squared (body mass index).</nciodm:CDISCDefinition>
                    <nciodm:PreferredTerm>Minute Times Milligram per Milliliter per Kilogram per Meter Squared</nciodm:PreferredTerm>
                </EnumeratedItem>
                <EnumeratedItem CodedValue="min*mg/mL/(mg/g)" nciodm:ExtCodeID="C117942">
                    <nciodm:CDISCDefinition>Minutes times milligrams per milliliter (area under the curve), divided by milligrams per gram (dose normalized by body weight).</nciodm:CDISCDefinition>
                    <nciodm:PreferredTerm>Minute Times Milligram Per Milliliter Per Milligram Per Gram</nciodm:PreferredTerm>
                </EnumeratedItem>
                <EnumeratedItem CodedValue="min*mg/mL/(mg/g/day)" nciodm:ExtCodeID="C117943">
                    <nciodm:CDISCDefinition>Minutes times milligrams per milliliter (area under the curve), divided by milligrams per gram per day (daily dose normalized by body weight).</nciodm:CDISCDefinition>
                    <nciodm:PreferredTerm>Minute Times Milligram Per Milliliter Per Milligram Per Gram Per Day</nciodm:PreferredTerm>
                </EnumeratedItem>
                <EnumeratedItem CodedValue="min*mg/mL/g" nciodm:ExtCodeID="C112342">
                    <nciodm:CDISCDefinition>Minutes times milligrams per milliliter (area under the curve), divided by grams (weight).</nciodm:CDISCDefinition>
                    <nciodm:PreferredTerm>Minute Times Milligram Per Milliliter Per Gram</nciodm:PreferredTerm>
                </EnumeratedItem>
                <EnumeratedItem CodedValue="min*mg/mL/kg" nciodm:ExtCodeID="C112343">
                    <nciodm:CDISCDefinition>Minutes times milligrams per milliliter (area under the curve), divided by kilograms (weight).</nciodm:CDISCDefinition>
                    <nciodm:PreferredTerm>Minute Times Milligram Per Milliliter Per Kilogram</nciodm:PreferredTerm>
                </EnumeratedItem>
                <EnumeratedItem CodedValue="min*mg/mL/m2" nciodm:ExtCodeID="C111263">
                    <nciodm:CDISCDefinition>Minutes times milligrams per milliliter (area under the curve), divided by meters squared (surface area).</nciodm:CDISCDefinition>
                    <nciodm:PreferredTerm>Minute Times Milligram per Milliliter per Meter Squared</nciodm:PreferredTerm>
                </EnumeratedItem>
                <EnumeratedItem CodedValue="min*mmol/L" nciodm:ExtCodeID="C85728">
                    <nciodm:CDISCDefinition>Minutes times millimoles per liter (area under the curve).</nciodm:CDISCDefinition>
                    <nciodm:PreferredTerm>Minute Times Micromole per Milliliter</nciodm:PreferredTerm>
                </EnumeratedItem>
                <EnumeratedItem CodedValue="min*mmol/L/(kg/m2)" nciodm:ExtCodeID="C111264">
                    <nciodm:CDISCDefinition>Minutes times millimoles per liter (area under the curve), divided by kilograms per meter squared (body mass index).</nciodm:CDISCDefinition>
                    <nciodm:PreferredTerm>Minute Times Millimole per Liter per Kilogram per Meter Squared</nciodm:PreferredTerm>
                </EnumeratedItem>
                <EnumeratedItem CodedValue="min*mmol/L/(mg/g)" nciodm:ExtCodeID="C117944">
                    <nciodm:CDISCDefinition>Minutes times millimoles per liter (area under the curve), divided by milligrams per gram (dose normalized by body weight).</nciodm:CDISCDefinition>
                    <nciodm:PreferredTerm>Minute Times Millimole Per Liter Per Milligram Per Gram</nciodm:PreferredTerm>
                </EnumeratedItem>
                <EnumeratedItem CodedValue="min*mmol/L/(mg/g/day)" nciodm:ExtCodeID="C117945">
                    <nciodm:CDISCDefinition>Minutes times millimoles per liter (area under the curve), divided by milligrams per gram per day (daily dose normalized by body weight).</nciodm:CDISCDefinition>
                    <nciodm:PreferredTerm>Minute Times Millimole Per Liter Per Milligram Per Gram Per Day</nciodm:PreferredTerm>
                </EnumeratedItem>
                <EnumeratedItem CodedValue="min*mmol/L/g" nciodm:ExtCodeID="C112344">
                    <nciodm:CDISCDefinition>Minutes times millimoles per liter (area under the curve), divided by grams (weight).</nciodm:CDISCDefinition>
                    <nciodm:PreferredTerm>Minute Times Millimole Per Liter Per Gram</nciodm:PreferredTerm>
                </EnumeratedItem>
                <EnumeratedItem CodedValue="min*mmol/L/kg" nciodm:ExtCodeID="C112345">
                    <nciodm:CDISCDefinition>Minutes times millimoles per liter (area under the curve), divided by kilograms (weight).</nciodm:CDISCDefinition>
                    <nciodm:PreferredTerm>Minute Times Millimole Per Liter Per Kilogram</nciodm:PreferredTerm>
                </EnumeratedItem>
                <EnumeratedItem CodedValue="min*mmol/L/m2" nciodm:ExtCodeID="C111265">
                    <nciodm:CDISCDefinition>Minutes times millimoles per liter (area under the curve), divided by meters squared (surface area).</nciodm:CDISCDefinition>
                    <nciodm:PreferredTerm>Minute Times Millimole per Liter per Meter Squared</nciodm:PreferredTerm>
                </EnumeratedItem>
                <EnumeratedItem CodedValue="min*mol/L" nciodm:ExtCodeID="C85730">
                    <nciodm:CDISCDefinition>Minutes times moles per liter (area under the curve).</nciodm:CDISCDefinition>
                    <nciodm:PreferredTerm>Minute Times Millimole per Milliliter</nciodm:PreferredTerm>
                </EnumeratedItem>
                <EnumeratedItem CodedValue="min*mol/L/(kg/m2)" nciodm:ExtCodeID="C111266">
                    <nciodm:CDISCDefinition>Minutes times moles per liter (area under the curve), divided by kilograms per meter squared (body mass index).</nciodm:CDISCDefinition>
                    <nciodm:PreferredTerm>Minute Times Mole per Liter per Kilogram per Meter Squared</nciodm:PreferredTerm>
                </EnumeratedItem>
                <EnumeratedItem CodedValue="min*mol/L/(mg/g)" nciodm:ExtCodeID="C117946">
                    <nciodm:CDISCDefinition>Minutes times moles per liter (area under the curve), divided by milligrams per gram (dose normalized by body weight).</nciodm:CDISCDefinition>
                    <nciodm:PreferredTerm>Minute Times mole Per Liter Per Milligram Per Gram</nciodm:PreferredTerm>
                </EnumeratedItem>
                <EnumeratedItem CodedValue="min*mol/L/(mg/g/day)" nciodm:ExtCodeID="C117947">
                    <nciodm:CDISCDefinition>Minutes times moles per liter (area under the curve), divided by milligrams per gram per day (daily dose normalized by body weight).</nciodm:CDISCDefinition>
                    <nciodm:PreferredTerm>Minute Times mole Per Liter Per Milligram Per Gram Per Day</nciodm:PreferredTerm>
                </EnumeratedItem>
                <EnumeratedItem CodedValue="min*mol/L/g" nciodm:ExtCodeID="C112346">
                    <nciodm:CDISCDefinition>Minutes times moles per liter (area under the curve), divided by grams (weight).</nciodm:CDISCDefinition>
                    <nciodm:PreferredTerm>Minute Times Mole Per Liter Per Gram</nciodm:PreferredTerm>
                </EnumeratedItem>
                <EnumeratedItem CodedValue="min*mol/L/kg" nciodm:ExtCodeID="C112347">
                    <nciodm:CDISCDefinition>Minutes times moles per liter (area under the curve), divided by kilograms (weight).</nciodm:CDISCDefinition>
                    <nciodm:PreferredTerm>Minute Times Mole Per Liter Per Kilogram</nciodm:PreferredTerm>
                </EnumeratedItem>
                <EnumeratedItem CodedValue="min*mol/L/m2" nciodm:ExtCodeID="C111267">
                    <nciodm:CDISCDefinition>Minutes times moles per liter (area under the curve), divided by meters squared (surface area).</nciodm:CDISCDefinition>
                    <nciodm:PreferredTerm>Minute Times Mole per Liter per Meter Squared</nciodm:PreferredTerm>
                </EnumeratedItem>
                <EnumeratedItem CodedValue="min*ng/mL" nciodm:ExtCodeID="C85732">
                    <nciodm:CDISCDefinition>Minutes times nanograms per milliliter (area under the curve).</nciodm:CDISCDefinition>
                    <nciodm:PreferredTerm>Minute Times Nanogram per Milliliter</nciodm:PreferredTerm>
                </EnumeratedItem>
                <EnumeratedItem CodedValue="min*ng/mL/(kg/m2)" nciodm:ExtCodeID="C111268">
                    <nciodm:CDISCDefinition>Minutes times nanograms per milliliter (area under the curve), divided by kilograms per meter squared (body mass index).</nciodm:CDISCDefinition>
                    <nciodm:PreferredTerm>Minute Times Nanogram per Milliliter per Kilogram per Meter Squared</nciodm:PreferredTerm>
                </EnumeratedItem>
                <EnumeratedItem CodedValue="min*ng/mL/(mg/g)" nciodm:ExtCodeID="C117948">
                    <nciodm:CDISCDefinition>Minutes times nanograms per milliliter (area under the curve), divided by milligrams per gram (dose normalized by body weight).</nciodm:CDISCDefinition>
                    <nciodm:PreferredTerm>Minute Times Nanogram Per Milliliter Per Milligram Per Gram</nciodm:PreferredTerm>
                </EnumeratedItem>
                <EnumeratedItem CodedValue="min*ng/mL/(mg/g/day)" nciodm:ExtCodeID="C117949">
                    <nciodm:CDISCDefinition>Minutes times nanograms per milliliter (area under the curve), divided by milligrams per gram per day (daily dose normalized by body weight).</nciodm:CDISCDefinition>
                    <nciodm:PreferredTerm>Minute Times Nanogram Per Milliliter Per Milligram Per Gram Per Day</nciodm:PreferredTerm>
                </EnumeratedItem>
                <EnumeratedItem CodedValue="min*ng/mL/g" nciodm:ExtCodeID="C112348">
                    <nciodm:CDISCDefinition>Minutes times nanograms per milliliter (area under the curve), divided by grams (weight).</nciodm:CDISCDefinition>
                    <nciodm:PreferredTerm>Minute Times Nanogram Per Milliliter Per Gram</nciodm:PreferredTerm>
                </EnumeratedItem>
                <EnumeratedItem CodedValue="min*ng/mL/kg" nciodm:ExtCodeID="C112349">
                    <nciodm:CDISCDefinition>Minutes times nanograms per milliliter (area under the curve), divided by kilograms (weight).</nciodm:CDISCDefinition>
                    <nciodm:PreferredTerm>Minute Times Nanogram Per Milliliter Per Kilogram</nciodm:PreferredTerm>
                </EnumeratedItem>
                <EnumeratedItem CodedValue="min*ng/mL/m2" nciodm:ExtCodeID="C111269">
                    <nciodm:CDISCDefinition>Minutes times nanograms per milliliter (area under the curve), divided by meters squared (surface area).</nciodm:CDISCDefinition>
                    <nciodm:PreferredTerm>Minute Times Nanogram per Milliliter per Meter Squared</nciodm:PreferredTerm>
                </EnumeratedItem>
                <EnumeratedItem CodedValue="min*nmol/L" nciodm:ExtCodeID="C85735">
                    <nciodm:CDISCDefinition>Minutes times nanomoles per liter (area under the curve).</nciodm:CDISCDefinition>
                    <nciodm:PreferredTerm>Minute Times Picomole per Milliliter</nciodm:PreferredTerm>
                </EnumeratedItem>
                <EnumeratedItem CodedValue="min*nmol/L/(kg/m2)" nciodm:ExtCodeID="C111270">
                    <nciodm:CDISCDefinition>Minutes times nanomoles per liter (area under the curve), divided by kilograms per meter squared (body mass index).</nciodm:CDISCDefinition>
                    <nciodm:PreferredTerm>Minute Times Nanomole per Liter per Kilogram per Meter Squared</nciodm:PreferredTerm>
                </EnumeratedItem>
                <EnumeratedItem CodedValue="min*nmol/L/(mg/g)" nciodm:ExtCodeID="C117950">
                    <nciodm:CDISCDefinition>Minutes times nanomoles per liter (area under the curve), divided by milligrams per gram (dose normalized by body weight).</nciodm:CDISCDefinition>
                    <nciodm:PreferredTerm>Minute Times Nanomole Per Liter Per Milligram Per Gram</nciodm:PreferredTerm>
                </EnumeratedItem>
                <EnumeratedItem CodedValue="min*nmol/L/(mg/g/day)" nciodm:ExtCodeID="C117951">
                    <nciodm:CDISCDefinition>Minutes times nanomoles per liter (area under the curve), divided by milligrams per gram per day (daily dose normalized by body weight).</nciodm:CDISCDefinition>
                    <nciodm:PreferredTerm>Minute Times Nanomole Per Liter Per Milligram Per Gram Per Day</nciodm:PreferredTerm>
                </EnumeratedItem>
                <EnumeratedItem CodedValue="min*nmol/L/g" nciodm:ExtCodeID="C112350">
                    <nciodm:CDISCDefinition>Minutes times nanomoles per liter (area under the curve), divided by grams (weight).</nciodm:CDISCDefinition>
                    <nciodm:PreferredTerm>Minute Times Nanomole Per Liter Per Gram</nciodm:PreferredTerm>
                </EnumeratedItem>
                <EnumeratedItem CodedValue="min*nmol/L/kg" nciodm:ExtCodeID="C112351">
                    <nciodm:CDISCDefinition>Minutes times nanomoles per liter (area under the curve), divided by kilograms (weight).</nciodm:CDISCDefinition>
                    <nciodm:PreferredTerm>Minute Times Nanomole Per Liter Per Kilogram</nciodm:PreferredTerm>
                </EnumeratedItem>
                <EnumeratedItem CodedValue="min*nmol/L/m2" nciodm:ExtCodeID="C111271">
                    <nciodm:CDISCDefinition>Minutes times nanomoles per liter (area under the curve), divided by meters squared (surface area).</nciodm:CDISCDefinition>
                    <nciodm:PreferredTerm>Minute Times Nanomole per Liter per Meter Squared</nciodm:PreferredTerm>
                </EnumeratedItem>
                <EnumeratedItem CodedValue="min*pg/mL" nciodm:ExtCodeID="C85734">
                    <nciodm:CDISCDefinition>Minutes times picograms per milliliter (area under the curve).</nciodm:CDISCDefinition>
                    <nciodm:PreferredTerm>Minute Times Picogram per Milliliter</nciodm:PreferredTerm>
                </EnumeratedItem>
                <EnumeratedItem CodedValue="min*pg/mL/(kg/m2)" nciodm:ExtCodeID="C111272">
                    <nciodm:CDISCDefinition>Minutes times picograms per milliliter (area under the curve), divided by kilograms per meter squared (body mass index).</nciodm:CDISCDefinition>
                    <nciodm:PreferredTerm>Minute Times Picogram per Milliliter per Kilogram per Meter Squared</nciodm:PreferredTerm>
                </EnumeratedItem>
                <EnumeratedItem CodedValue="min*pg/mL/(mg/g)" nciodm:ExtCodeID="C117952">
                    <nciodm:CDISCDefinition>Minutes times picograms per milliliter (area under the curve), divided by milligrams per gram (dose normalized by body weight).</nciodm:CDISCDefinition>
                    <nciodm:PreferredTerm>Minute Times Picogram Per Milliliter Per Milligram Per Gram</nciodm:PreferredTerm>
                </EnumeratedItem>
                <EnumeratedItem CodedValue="min*pg/mL/(mg/g/day)" nciodm:ExtCodeID="C117953">
                    <nciodm:CDISCDefinition>Minutes times picograms per milliliter (area under the curve), divided by milligrams per gram per day (daily dose normalized by body weight).</nciodm:CDISCDefinition>
                    <nciodm:PreferredTerm>Minute Times Picogram Per Milliliter Per Milligram Per Gram Per Day</nciodm:PreferredTerm>
                </EnumeratedItem>
                <EnumeratedItem CodedValue="min*pg/mL/g" nciodm:ExtCodeID="C112352">
                    <nciodm:CDISCDefinition>Minutes times picograms per milliliter (area under the curve), divided by grams (weight).</nciodm:CDISCDefinition>
                    <nciodm:PreferredTerm>Minute Times Picogram Per Milliliter Per Gram</nciodm:PreferredTerm>
                </EnumeratedItem>
                <EnumeratedItem CodedValue="min*pg/mL/kg" nciodm:ExtCodeID="C112353">
                    <nciodm:CDISCDefinition>Minutes times picograms per milliliter (area under the curve), divided by kilograms (weight).</nciodm:CDISCDefinition>
                    <nciodm:PreferredTerm>Minute Times Picogram Per Milliliter Per Kilogram</nciodm:PreferredTerm>
                </EnumeratedItem>
                <EnumeratedItem CodedValue="min*pg/mL/m2" nciodm:ExtCodeID="C111273">
                    <nciodm:CDISCDefinition>Minutes times picograms per milliliter (area under the curve), divided by meters squared (surface area).</nciodm:CDISCDefinition>
                    <nciodm:PreferredTerm>Minute Times Picogram per Milliliter per Meter Squared</nciodm:PreferredTerm>
                </EnumeratedItem>
                <EnumeratedItem CodedValue="min*pmol/L" nciodm:ExtCodeID="C106543">
                    <nciodm:CDISCDefinition>Minutes times picomoles per liter (area under the curve).</nciodm:CDISCDefinition>
                    <nciodm:PreferredTerm>Minute Times Picomole Per Liter</nciodm:PreferredTerm>
                </EnumeratedItem>
                <EnumeratedItem CodedValue="min*pmol/L/(kg/m2)" nciodm:ExtCodeID="C111274">
                    <nciodm:CDISCDefinition>Minutes times picomoles per liter (area under the curve), divided by kilograms per meter squared (body mass index).</nciodm:CDISCDefinition>
                    <nciodm:PreferredTerm>Minute Times Picomole per Liter per Kilogram per Meter Squared</nciodm:PreferredTerm>
                </EnumeratedItem>
                <EnumeratedItem CodedValue="min*pmol/L/(mg/g)" nciodm:ExtCodeID="C117954">
                    <nciodm:CDISCDefinition>Minutes times picomoles per liter (area under the curve), divided by milligrams per gram (dose normalized by body weight).</nciodm:CDISCDefinition>
                    <nciodm:PreferredTerm>Minute Times Picomole Per Liter Per Milligram Per Gram</nciodm:PreferredTerm>
                </EnumeratedItem>
                <EnumeratedItem CodedValue="min*pmol/L/(mg/g/day)" nciodm:ExtCodeID="C117955">
                    <nciodm:CDISCDefinition>Minutes times picomoles per liter (area under the curve), divided by milligrams per gram per day (daily dose normalized by body weight).</nciodm:CDISCDefinition>
                    <nciodm:PreferredTerm>Minute Times Picomole Per Liter Per Milligram Per Gram Per Day</nciodm:PreferredTerm>
                </EnumeratedItem>
                <EnumeratedItem CodedValue="min*pmol/L/g" nciodm:ExtCodeID="C112354">
                    <nciodm:CDISCDefinition>Minutes times picomoles per liter (area under the curve), divided by grams (weight).</nciodm:CDISCDefinition>
                    <nciodm:PreferredTerm>Minute Times Picomole Per Liter Per Gram</nciodm:PreferredTerm>
                </EnumeratedItem>
                <EnumeratedItem CodedValue="min*pmol/L/kg" nciodm:ExtCodeID="C112355">
                    <nciodm:CDISCDefinition>Minutes times picomoles per liter (area under the curve), divided by kilograms (weight).</nciodm:CDISCDefinition>
                    <nciodm:PreferredTerm>Minute Times Picomole Per Liter Per Kilogram</nciodm:PreferredTerm>
                </EnumeratedItem>
                <EnumeratedItem CodedValue="min*pmol/L/m2" nciodm:ExtCodeID="C111275">
                    <nciodm:CDISCDefinition>Minutes times picomoles per liter (area under the curve), divided by meters squared (surface area).</nciodm:CDISCDefinition>
                    <nciodm:PreferredTerm>Minute Times Picomole per Liter per Meter Squared</nciodm:PreferredTerm>
                </EnumeratedItem>
                <EnumeratedItem CodedValue="min*ug/mL" nciodm:ExtCodeID="C85727">
                    <nciodm:CDISCDefinition>Minutes times micrograms per milliliter (area under the curve).</nciodm:CDISCDefinition>
                    <nciodm:PreferredTerm>Minute Times Microgram per Milliliter</nciodm:PreferredTerm>
                </EnumeratedItem>
                <EnumeratedItem CodedValue="min*ug/mL/(kg/m2)" nciodm:ExtCodeID="C111258">
                    <nciodm:CDISCDefinition>Minutes times micrograms per milliliter (area under the curve), divided by kilograms per meter squared (body mass index).</nciodm:CDISCDefinition>
                    <nciodm:PreferredTerm>Minute Times Microgram per Milliliter per Kilogram per Meter Squared</nciodm:PreferredTerm>
                </EnumeratedItem>
                <EnumeratedItem CodedValue="min*ug/mL/(mg/g)" nciodm:ExtCodeID="C117956">
                    <nciodm:CDISCDefinition>Minutes times micrograms per milliliter (area under the curve), divided by milligrams per gram (dose normalized by body weight).</nciodm:CDISCDefinition>
                    <nciodm:PreferredTerm>Minute Times Microgram Per Milliliter Per Milligram Per Gram</nciodm:PreferredTerm>
                </EnumeratedItem>
                <EnumeratedItem CodedValue="min*ug/mL/(mg/g/day)" nciodm:ExtCodeID="C117957">
                    <nciodm:CDISCDefinition>Minutes times micrograms per milliliter (area under the curve), divided by milligrams per gram per day (daily dose normalized by body weight).</nciodm:CDISCDefinition>
                    <nciodm:PreferredTerm>Minute Times Microgram Per Milliliter Per Milligram Per Gram Per Day</nciodm:PreferredTerm>
                </EnumeratedItem>
                <EnumeratedItem CodedValue="min*ug/mL/g" nciodm:ExtCodeID="C112338">
                    <nciodm:CDISCDefinition>Minutes times micrograms per milliliter (area under the curve), divided by grams (weight).</nciodm:CDISCDefinition>
                    <nciodm:PreferredTerm>Minute Times Microgram Per Milliliter Per Gram</nciodm:PreferredTerm>
                </EnumeratedItem>
                <EnumeratedItem CodedValue="min*ug/mL/kg" nciodm:ExtCodeID="C112339">
                    <nciodm:CDISCDefinition>Minutes times micrograms per milliliter (area under the curve), divided by kilograms (weight).</nciodm:CDISCDefinition>
                    <nciodm:PreferredTerm>Minute Times Microgram Per Milliliter Per Kilogram</nciodm:PreferredTerm>
                </EnumeratedItem>
                <EnumeratedItem CodedValue="min*ug/mL/m2" nciodm:ExtCodeID="C111259">
                    <nciodm:CDISCDefinition>Minutes times micrograms per milliliter (area under the curve), divided by meters squared (surface area).</nciodm:CDISCDefinition>
                    <nciodm:PreferredTerm>Minute Times Microgram per Milliliter per Meter Squared</nciodm:PreferredTerm>
                </EnumeratedItem>
                <EnumeratedItem CodedValue="min*umol/L" nciodm:ExtCodeID="C85733">
                    <nciodm:CDISCDefinition>Minutes times micromoles per liter (area under the curve).</nciodm:CDISCDefinition>
                    <nciodm:PreferredTerm>Minute Times Nanomole per Milliliter</nciodm:PreferredTerm>
                </EnumeratedItem>
                <EnumeratedItem CodedValue="min*umol/L/(kg/m2)" nciodm:ExtCodeID="C111260">
                    <nciodm:CDISCDefinition>Minutes times micromoles per liter (area under the curve), divided by kilograms per meter squared (body mass index).</nciodm:CDISCDefinition>
                    <nciodm:PreferredTerm>Minute Times Micromole per Liter per Kilogram per Meter Squared</nciodm:PreferredTerm>
                </EnumeratedItem>
                <EnumeratedItem CodedValue="min*umol/L/(mg/g)" nciodm:ExtCodeID="C117958">
                    <nciodm:CDISCDefinition>Minutes times micromoles per liter (area under the curve), divided by milligrams per gram (dose normalized by body weight).</nciodm:CDISCDefinition>
                    <nciodm:PreferredTerm>Minute Times Micromole Per Liter Per Milligram Per Gram</nciodm:PreferredTerm>
                </EnumeratedItem>
                <EnumeratedItem CodedValue="min*umol/L/(mg/g/day)" nciodm:ExtCodeID="C117959">
                    <nciodm:CDISCDefinition>Minutes times micromoles per liter (area under the curve), divided by milligrams per gram per day (daily dose normalized by body weight).</nciodm:CDISCDefinition>
                    <nciodm:PreferredTerm>Minute Times Micromole Per Liter Per Milligram Per Gram Per Day</nciodm:PreferredTerm>
                </EnumeratedItem>
                <EnumeratedItem CodedValue="min*umol/L/g" nciodm:ExtCodeID="C112340">
                    <nciodm:CDISCDefinition>Minutes times micromoles per liter (area under the curve), divided by grams (weight).</nciodm:CDISCDefinition>
                    <nciodm:PreferredTerm>Minute Times Micromole Per Liter Per Gram</nciodm:PreferredTerm>
                </EnumeratedItem>
                <EnumeratedItem CodedValue="min*umol/L/kg" nciodm:ExtCodeID="C112341">
                    <nciodm:CDISCDefinition>Minutes times micromoles per liter (area under the curve), divided by kilograms (weight).</nciodm:CDISCDefinition>
                    <nciodm:PreferredTerm>Minute Times Micromole Per Liter Per Kilogram</nciodm:PreferredTerm>
                </EnumeratedItem>
                <EnumeratedItem CodedValue="min*umol/L/m2" nciodm:ExtCodeID="C111261">
                    <nciodm:CDISCDefinition>Minutes times micromoles per liter (area under the curve), divided by meters squared (surface area).</nciodm:CDISCDefinition>
                    <nciodm:PreferredTerm>Minute Times Micromole per Liter per Meter Squared</nciodm:PreferredTerm>
                </EnumeratedItem>
                <EnumeratedItem CodedValue="mIU/mL" nciodm:ExtCodeID="C67376">
                    <nciodm:CDISCSynonym>IE/L</nciodm:CDISCSynonym>
                    <nciodm:CDISCSynonym>IU/L</nciodm:CDISCSynonym>
                    <nciodm:CDISCSynonym>International Unit per Liter</nciodm:CDISCSynonym>
                    <nciodm:CDISCSynonym>mIU/mL</nciodm:CDISCSynonym>
                    <nciodm:CDISCDefinition>A unit of concentration (biologic activity) equal to one milli-international unit of substance per milliliter of solution or one international unit of substance per liter of solution.</nciodm:CDISCDefinition>
                    <nciodm:PreferredTerm>International Unit per Liter</nciodm:PreferredTerm>
                </EnumeratedItem>
                <EnumeratedItem CodedValue="mIU/mL/(kg/m2)" nciodm:ExtCodeID="C119396">
                    <nciodm:CDISCDefinition>Milli-international units per milliliter (concentration), divided by kilograms per meter squared (body mass index).</nciodm:CDISCDefinition>
                    <nciodm:PreferredTerm>Milli-International Unit per Milliliter per Kilogram per Meter Squared</nciodm:PreferredTerm>
                </EnumeratedItem>
                <EnumeratedItem CodedValue="mIU/mL/(mg/day)" nciodm:ExtCodeID="C119397">
                    <nciodm:CDISCDefinition>Milli-international units per milliliter (concentration), divided by milligrams per day (daily dose).</nciodm:CDISCDefinition>
                    <nciodm:PreferredTerm>Milli-International Unit per Milliliter per Milligram per Day</nciodm:PreferredTerm>
                </EnumeratedItem>
                <EnumeratedItem CodedValue="mIU/mL/(mg/kg)" nciodm:ExtCodeID="C119398">
                    <nciodm:CDISCDefinition>Milli-international units per milliliter (concentration), divided by milligrams per kilogram.</nciodm:CDISCDefinition>
                    <nciodm:PreferredTerm>Milli-International Unit per Milliliter per Milligram per Kilogram</nciodm:PreferredTerm>
                </EnumeratedItem>
                <EnumeratedItem CodedValue="mIU/mL/(mg/kg/day)" nciodm:ExtCodeID="C119399">
                    <nciodm:CDISCDefinition>Milli-international units per milliliter (concentration), divided by milligrams per kilogram per day.</nciodm:CDISCDefinition>
                    <nciodm:PreferredTerm>Milli-International Unit per Milliliter per Milligram per Kilogram per Day</nciodm:PreferredTerm>
                </EnumeratedItem>
                <EnumeratedItem CodedValue="mIU/mL/(mg/m2)" nciodm:ExtCodeID="C119400">
                    <nciodm:CDISCDefinition>Milli-international units per milliliter (concentration), divided by milligrams per meter squared.</nciodm:CDISCDefinition>
                    <nciodm:PreferredTerm>Milli-International Unit per Milliliter per Milligram per Meter Squared</nciodm:PreferredTerm>
                </EnumeratedItem>
                <EnumeratedItem CodedValue="mIU/mL/(mg/m2/day)" nciodm:ExtCodeID="C119401">
                    <nciodm:CDISCDefinition>Milli-international units per milliliter (concentration), divided by milligrams per meter squared per day (daily dose normalized by surface area).</nciodm:CDISCDefinition>
                    <nciodm:PreferredTerm>Milli-International Unit per Milliliter per Milligram per Meter Squared per Day</nciodm:PreferredTerm>
                </EnumeratedItem>
                <EnumeratedItem CodedValue="mIU/mL/(ug/day)" nciodm:ExtCodeID="C119402">
                    <nciodm:CDISCDefinition>Milli-international units per milliliter (concentration), divided by micrograms per day (daily dose).</nciodm:CDISCDefinition>
                    <nciodm:PreferredTerm>Milli-International Unit per Milliliter per Microgram per Day</nciodm:PreferredTerm>
                </EnumeratedItem>
                <EnumeratedItem CodedValue="mIU/mL/(ug/kg)" nciodm:ExtCodeID="C119403">
                    <nciodm:CDISCDefinition>Milli-international units per milliliter (concentration), divided by micrograms per kilogram.</nciodm:CDISCDefinition>
                    <nciodm:PreferredTerm>Milli-International Unit per Milliliter per Microgram per Kilogram</nciodm:PreferredTerm>
                </EnumeratedItem>
                <EnumeratedItem CodedValue="mIU/mL/(ug/kg/day)" nciodm:ExtCodeID="C119404">
                    <nciodm:CDISCDefinition>Milli-international units per milliliter (concentration), divided by micrograms per kilogram per day.</nciodm:CDISCDefinition>
                    <nciodm:PreferredTerm>Milli-International Unit per Milliliter per Microgram per Kilogram per Day</nciodm:PreferredTerm>
                </EnumeratedItem>
                <EnumeratedItem CodedValue="mIU/mL/(ug/m2)" nciodm:ExtCodeID="C119405">
                    <nciodm:CDISCDefinition>Milli-international units per milliliter (concentration), divided by micrograms per meter squared.</nciodm:CDISCDefinition>
                    <nciodm:PreferredTerm>Milli-International Unit per Milliliter per Microgram per Meter Squared</nciodm:PreferredTerm>
                </EnumeratedItem>
                <EnumeratedItem CodedValue="mIU/mL/(ug/m2/day)" nciodm:ExtCodeID="C119406">
                    <nciodm:CDISCDefinition>Milli-international units per milliliter (concentration), divided by micrograms per meter squared per day (daily dose normalized by surface area).</nciodm:CDISCDefinition>
                    <nciodm:PreferredTerm>Milli-International Unit per Milliliter per Microgram per Meter Squared per Day</nciodm:PreferredTerm>
                </EnumeratedItem>
                <EnumeratedItem CodedValue="mIU/mL/g" nciodm:ExtCodeID="C119407">
                    <nciodm:CDISCDefinition>Milli-international units per milliliter (concentration), divided by grams (weight).</nciodm:CDISCDefinition>
                    <nciodm:PreferredTerm>Milli-International Unit per Milliliter per Gram</nciodm:PreferredTerm>
                </EnumeratedItem>
                <EnumeratedItem CodedValue="mIU/mL/kg" nciodm:ExtCodeID="C119408">
                    <nciodm:CDISCDefinition>Milli-international units per milliliter (concentration), divided by kilograms (weight).</nciodm:CDISCDefinition>
                    <nciodm:PreferredTerm>Milli-International Unit per Milliliter per Kilogram</nciodm:PreferredTerm>
                </EnumeratedItem>
                <EnumeratedItem CodedValue="mIU/mL/m2" nciodm:ExtCodeID="C119409">
                    <nciodm:CDISCDefinition>Milli-international units per milliliter (concentration), divided by meters squared (surface area).</nciodm:CDISCDefinition>
                    <nciodm:PreferredTerm>Milli-International Unit per Milliliter per Meter Squared</nciodm:PreferredTerm>
                </EnumeratedItem>
                <EnumeratedItem CodedValue="mIU/mL/mg" nciodm:ExtCodeID="C119410">
                    <nciodm:CDISCDefinition>Milli-international units per milliliter (concentration), divided by milligrams (dose).</nciodm:CDISCDefinition>
                    <nciodm:PreferredTerm>Milli-International Unit per Milliliter per Milligram</nciodm:PreferredTerm>
                </EnumeratedItem>
                <EnumeratedItem CodedValue="mIU/mL/ug" nciodm:ExtCodeID="C119411">
                    <nciodm:CDISCDefinition>Milli-international units per milliliter (concentration), divided by micrograms (dose).</nciodm:CDISCDefinition>
                    <nciodm:PreferredTerm>Milli-International Unit per Milliliter per Microgram</nciodm:PreferredTerm>
                </EnumeratedItem>
                <EnumeratedItem CodedValue="mL" nciodm:ExtCodeID="C28254">
                    <nciodm:CDISCSynonym>Milliliter</nciodm:CDISCSynonym>
                    <nciodm:CDISCSynonym>cm3</nciodm:CDISCSynonym>
                    <nciodm:CDISCDefinition>The unit of volume equal to one thousandth of a liter, one cubic centimeter, 10E-6 cubic meter, or approximately to 0.061 023 7 cubic inch.(NCI)</nciodm:CDISCDefinition>
                    <nciodm:PreferredTerm>Milliliter</nciodm:PreferredTerm>
                </EnumeratedItem>
                <EnumeratedItem CodedValue="mL/(kg/m2)" nciodm:ExtCodeID="C120816">
                    <nciodm:CDISCDefinition>Milliliters (volume), divided by kilograms per meter squared (body mass index).</nciodm:CDISCDefinition>
                    <nciodm:PreferredTerm>Milliliter per Kilogram per Meter Squared</nciodm:PreferredTerm>
                </EnumeratedItem>
                <EnumeratedItem CodedValue="mL/(mg/day)" nciodm:ExtCodeID="C120817">
                    <nciodm:CDISCDefinition>Milliliters (volume), divided by milligrams per day (daily dose).</nciodm:CDISCDefinition>
                    <nciodm:PreferredTerm>Milliliter per Milligram per Day</nciodm:PreferredTerm>
                </EnumeratedItem>
                <EnumeratedItem CodedValue="mL/(mg/kg)" nciodm:ExtCodeID="C120818">
                    <nciodm:CDISCDefinition>Milliliters (volume), divided by milligrams per kilogram (dose normalized by body weight).</nciodm:CDISCDefinition>
                    <nciodm:PreferredTerm>Milliliter per Milligram per Kilogram</nciodm:PreferredTerm>
                </EnumeratedItem>
                <EnumeratedItem CodedValue="mL/(mg/kg/day)" nciodm:ExtCodeID="C120819">
                    <nciodm:CDISCDefinition>Milliliters (volume), divided by milligrams per kilogram per day (daily dose normalized by body weight).</nciodm:CDISCDefinition>
                    <nciodm:PreferredTerm>Milliliter per Milligram per Kilogram per Day</nciodm:PreferredTerm>
                </EnumeratedItem>
                <EnumeratedItem CodedValue="mL/(mg/m2)" nciodm:ExtCodeID="C120820">
                    <nciodm:CDISCDefinition>Milliliters (volume), divided by milligrams per meter squared (dose normalized by surface area).</nciodm:CDISCDefinition>
                    <nciodm:PreferredTerm>Milliliter per Milligram per Meter Squared</nciodm:PreferredTerm>
                </EnumeratedItem>
                <EnumeratedItem CodedValue="mL/(mg/m2/day)" nciodm:ExtCodeID="C120821">
                    <nciodm:CDISCDefinition>Milliliters (volume), divided by milligrams per meter squared per day (daily dose normalized by surface area).</nciodm:CDISCDefinition>
                    <nciodm:PreferredTerm>Milliliter per Milligram per Meter Squared per Day</nciodm:PreferredTerm>
                </EnumeratedItem>
                <EnumeratedItem CodedValue="mL/(ug/kg)" nciodm:ExtCodeID="C120822">
                    <nciodm:CDISCDefinition>Milliliters (volume), divided by micrograms per kilogram (dose normalized by body weight).</nciodm:CDISCDefinition>
                    <nciodm:PreferredTerm>Milliliter per Microgram per Kilogram</nciodm:PreferredTerm>
                </EnumeratedItem>
                <EnumeratedItem CodedValue="mL/(ug/kg/day)" nciodm:ExtCodeID="C120823">
                    <nciodm:CDISCDefinition>Milliliters (volume), divided by micrograms per kilogram per day (daily dose normalized by body weight).</nciodm:CDISCDefinition>
                    <nciodm:PreferredTerm>Milliliter per Microgram per Kilogram per Day</nciodm:PreferredTerm>
                </EnumeratedItem>
                <EnumeratedItem CodedValue="mL/(ug/m2/day)" nciodm:ExtCodeID="C120824">
                    <nciodm:CDISCDefinition>Milliliters (volume), divided by micrograms per meter squared per day (daily dose normalized by surface area).</nciodm:CDISCDefinition>
                    <nciodm:PreferredTerm>Milliliter per Microgram per Meter Squared per Day</nciodm:PreferredTerm>
                </EnumeratedItem>
                <EnumeratedItem CodedValue="mL/day" nciodm:ExtCodeID="C67410">
                    <nciodm:CDISCSynonym>Milliliter per Day</nciodm:CDISCSynonym>
                    <nciodm:CDISCDefinition>Milliliters per day.</nciodm:CDISCDefinition>
                    <nciodm:PreferredTerm>Milliliter per 24 Hours</nciodm:PreferredTerm>
                </EnumeratedItem>
                <EnumeratedItem CodedValue="mL/h" nciodm:ExtCodeID="C66962">
                    <nciodm:CDISCSynonym>Milliliters per Hour</nciodm:CDISCSynonym>
                    <nciodm:CDISCDefinition>A unit of volumetric flow rate defined as the rate at which one milliliter of matter travels during the period of time equal to one hour.(NCI)</nciodm:CDISCDefinition>
                    <nciodm:PreferredTerm>Milliliter per Hour</nciodm:PreferredTerm>
                </EnumeratedItem>
                <EnumeratedItem CodedValue="mL/kg/day" nciodm:ExtCodeID="C73758">
                    <nciodm:CDISCSynonym>Milliliter per Kilogram per Day</nciodm:CDISCSynonym>
                    <nciodm:CDISCDefinition>Milliliters per kilogram per day.</nciodm:CDISCDefinition>
                    <nciodm:PreferredTerm>Milliliter per Kilogram per Day</nciodm:PreferredTerm>
                </EnumeratedItem>
                <EnumeratedItem CodedValue="mL/kg/h" nciodm:ExtCodeID="C73759">
                    <nciodm:CDISCSynonym>Milliliter per Kilogram per Hour</nciodm:CDISCSynonym>
                    <nciodm:CDISCDefinition>Milliliters per kilogram per hour.</nciodm:CDISCDefinition>
                    <nciodm:PreferredTerm>Milliliter per Kilogram per Hour</nciodm:PreferredTerm>
                </EnumeratedItem>
                <EnumeratedItem CodedValue="mL/kg/min" nciodm:ExtCodeID="C73760">
                    <nciodm:CDISCSynonym>Milliliter per Kilogram per Minute</nciodm:CDISCSynonym>
                    <nciodm:CDISCSynonym>mL/kg/min</nciodm:CDISCSynonym>
                    <nciodm:CDISCSynonym>mL/min/kg</nciodm:CDISCSynonym>
                    <nciodm:CDISCSynonym>uL/g/min</nciodm:CDISCSynonym>
