<CodeList xmlns="http://www.cdisc.org/ns/odm/v1.3" xmlns:nciodm="http://ncicb.nci.nih.gov/xml/odm/EVS/CDISC" xmlns:xs="http://www.w3.org/2001/XMLSchema-instance" OID="CL.C99079.EPOCH" Name="Epoch" DataType="text" nciodm:ExtCodeID="C99079" nciodm:CodeListExtensible="Yes">
                <Description>
                    <TranslatedText xml:lang="en">The name of the EPOCH.</TranslatedText>
                </Description>
                <EnumeratedItem CodedValue="BASELINE" nciodm:ExtCodeID="C125938">
                    <nciodm:CDISCDefinition>A period in a clinical study after eligibility has been met and before the start of treatment, at which baseline measurements are collected.</nciodm:CDISCDefinition>
                    <nciodm:PreferredTerm>Baseline Epoch</nciodm:PreferredTerm>
                </EnumeratedItem>
                <EnumeratedItem CodedValue="BLINDED TREATMENT" nciodm:ExtCodeID="C102255">
                    <nciodm:CDISCDefinition>A period in a clinical study during which subjects receive blinded therapeutic treatment.</nciodm:CDISCDefinition>
                    <nciodm:PreferredTerm>Blinded Treatment Epoch</nciodm:PreferredTerm>
                </EnumeratedItem>
                <EnumeratedItem CodedValue="CONTINUATION TREATMENT" nciodm:ExtCodeID="C123452">
                    <nciodm:CDISCSynonym>Continuation Phase</nciodm:CDISCSynonym>
                    <nciodm:CDISCDefinition>A period in a clinical study during which subjects receive continuation treatment.</nciodm:CDISCDefinition>
                    <nciodm:PreferredTerm>Continuation Therapy Epoch</nciodm:PreferredTerm>
                </EnumeratedItem>
                <EnumeratedItem CodedValue="FOLLOW-UP" nciodm:ExtCodeID="C99158">
                    <nciodm:CDISCDefinition>A period in a clinical study during which information about the health status of an individual is obtained after study procedures and treatments have concluded.</nciodm:CDISCDefinition>
                    <nciodm:PreferredTerm>Clinical Study Follow-up</nciodm:PreferredTerm>
                </EnumeratedItem>
                <EnumeratedItem CodedValue="INDUCTION TREATMENT" nciodm:ExtCodeID="C123453">
                    <nciodm:CDISCSynonym>Induction Phase</nciodm:CDISCSynonym>
                    <nciodm:CDISCSynonym>Intensive Phase</nciodm:CDISCSynonym>
                    <nciodm:CDISCDefinition>A period in a clinical study during which subjects receive induction treatment.</nciodm:CDISCDefinition>
                    <nciodm:PreferredTerm>Induction Therapy Epoch</nciodm:PreferredTerm>
                </EnumeratedItem>
                <EnumeratedItem CodedValue="LONG-TERM FOLLOW-UP" nciodm:ExtCodeID="C16032">
                    <nciodm:CDISCDefinition>A period in a clinical study during which information about the health status of an individual is obtained long after study procedures and treatments have concluded.</nciodm:CDISCDefinition>
                    <nciodm:PreferredTerm>Long-term Follow-up</nciodm:PreferredTerm>
                </EnumeratedItem>
                <EnumeratedItem CodedValue="OPEN LABEL TREATMENT" nciodm:ExtCodeID="C102256">
                    <nciodm:CDISCDefinition>A period in a clinical study during which subjects receive open label therapeutic treatment.</nciodm:CDISCDefinition>
                    <nciodm:PreferredTerm>Open Label Treatment Epoch</nciodm:PreferredTerm>
                </EnumeratedItem>
                <EnumeratedItem CodedValue="RUN-IN" nciodm:ExtCodeID="C98779">
                    <nciodm:CDISCDefinition>A period in a clinical study that occurs before the commencement of the primary clinical study investigation, during which subjects may be assessed for suitability in the clinical study, withdrawn from existing therapy, trained in study methodology or evaluated for any other protocol-specified reason.</nciodm:CDISCDefinition>
                    <nciodm:PreferredTerm>Run-in Period</nciodm:PreferredTerm>
                </EnumeratedItem>
                <EnumeratedItem CodedValue="SCREENING" nciodm:ExtCodeID="C48262">
                    <nciodm:CDISCDefinition>A period in a clinical study during which subjects are evaluated for participation in the study.</nciodm:CDISCDefinition>
                    <nciodm:PreferredTerm>Trial Screening</nciodm:PreferredTerm>
                </EnumeratedItem>
                <EnumeratedItem CodedValue="TREATMENT" nciodm:ExtCodeID="C101526">
                    <nciodm:CDISCDefinition>A period in a clinical study during which subjects receive therapeutic treatment.</nciodm:CDISCDefinition>
                    <nciodm:PreferredTerm>Treatment Epoch</nciodm:PreferredTerm>
                </EnumeratedItem>
                <EnumeratedItem CodedValue="WASHOUT" nciodm:ExtCodeID="C42872">
                    <nciodm:CDISCDefinition>A period of time during a clinical study when a participant is taken off of a study drug or other medication in order to eliminate the effects of the treatment.</nciodm:CDISCDefinition>
                    <nciodm:PreferredTerm>Washout Period</nciodm:PreferredTerm>
                </EnumeratedItem>
                <nciodm:CDISCSubmissionValue>EPOCH</nciodm:CDISCSubmissionValue>
                <nciodm:CDISCSynonym>Epoch</nciodm:CDISCSynonym>
                <nciodm:PreferredTerm>CDISC SDTM Epoch Terminology</nciodm:PreferredTerm>
            </CodeList>
            
