<CodeList xmlns="http://www.cdisc.org/ns/odm/v1.3" xmlns:nciodm="http://ncicb.nci.nih.gov/xml/odm/EVS/CDISC" xmlns:xs="http://www.w3.org/2001/XMLSchema-instance" OID="CL.C101832.FATESTCD" Name="Findings About Test Code" DataType="text" nciodm:ExtCodeID="C101832" nciodm:CodeListExtensible="Yes">
                <Description>
                    <TranslatedText xml:lang="en">Terminology relevant to the test codes that describe findings about an event or intervention.</TranslatedText>
                </Description>
                <EnumeratedItem CodedValue="DRSTAT" nciodm:ExtCodeID="C102626">
                    <nciodm:CDISCSynonym>Drug Resistance Status</nciodm:CDISCSynonym>
                    <nciodm:CDISCDefinition>The state or condition of not responding to a pharmacological agent.</nciodm:CDISCDefinition>
                    <nciodm:PreferredTerm>Drug Resistance Status</nciodm:PreferredTerm>
                </EnumeratedItem>
                <nciodm:CDISCSubmissionValue>FATESTCD</nciodm:CDISCSubmissionValue>
                <nciodm:CDISCSynonym>Findings About Test Code</nciodm:CDISCSynonym>
                <nciodm:PreferredTerm>CDISC SDTM Findings About Test Code Terminology</nciodm:PreferredTerm>
            </CodeList>
            
