<CodeList xmlns="http://www.cdisc.org/ns/odm/v1.3" xmlns:nciodm="http://ncicb.nci.nih.gov/xml/odm/EVS/CDISC" xmlns:xs="http://www.w3.org/2001/XMLSchema-instance" OID="CL.C128687.MSTEST" Name="Microbiology Susceptibility Test Name" DataType="text" nciodm:ExtCodeID="C128687" nciodm:CodeListExtensible="Yes">
                <Description>
                    <TranslatedText xml:lang="en">Terminology relevant to the test names that define microorganism responses to antimicrobial agents.</TranslatedText>
                </Description>
                <EnumeratedItem CodedValue="Diameter of the Zone of Inhibition" nciodm:ExtCodeID="C147471">
                    <nciodm:CDISCSynonym>Diameter of the Kill Zone</nciodm:CDISCSynonym>
                    <nciodm:CDISCSynonym>Diameter of the Zone of Inhibition</nciodm:CDISCSynonym>
                    <nciodm:CDISCDefinition>A measurement of the diameter of the circular region of bacteria growth inhibition that surrounds an antibiotic source on the surface of a cultured plate.</nciodm:CDISCDefinition>
                    <nciodm:PreferredTerm>Antibiotic Susceptibility Zone Diameter</nciodm:PreferredTerm>
                </EnumeratedItem>
                <EnumeratedItem CodedValue="Inhibitory Concentration Net Assessment" nciodm:ExtCodeID="C116255">
                    <nciodm:CDISCSynonym>Inhibitory Concentration Net Assessment</nciodm:CDISCSynonym>
                    <nciodm:CDISCDefinition>An indication of reduced or increased susceptibility of a microbial organism, or activity of a biological/biochemical reaction in response to the inhibitory concentration (IC50 and/or IC95) of a specific drug.</nciodm:CDISCDefinition>
                    <nciodm:PreferredTerm>Inhibitory Concentration Net Assessment Measurement</nciodm:PreferredTerm>
                </EnumeratedItem>
                <EnumeratedItem CodedValue="Microbial EC50 Fold Change from Baseline" nciodm:ExtCodeID="C139114">
                    <nciodm:CDISCSynonym>Microbial EC50 Fold Change from Baseline</nciodm:CDISCSynonym>
                    <nciodm:CDISCDefinition>A fold change based on the concentration of a specific drug expected to produce 50 percent inhibition of population growth or replication of a microbial organism. (NCI)</nciodm:CDISCDefinition>
                    <nciodm:PreferredTerm>Microbial EC50 Fold Change from Baseline</nciodm:PreferredTerm>
                </EnumeratedItem>
                <EnumeratedItem CodedValue="Microbial EC50 Fold Change from Ref" nciodm:ExtCodeID="C139115">
                    <nciodm:CDISCSynonym>Microbial EC50 Fold Change from Ref</nciodm:CDISCSynonym>
                    <nciodm:CDISCSynonym>Microbial EC50 Fold Change from Reference</nciodm:CDISCSynonym>
                    <nciodm:CDISCDefinition>A fold change based on the concentration of a specific drug expected to produce 50 percent inhibition of the population growth or replication of a microbial organism. It is a ratio calculated by the EC50 Subject Result divided by the EC50 Reference Control Result. (NCI)</nciodm:CDISCDefinition>
                    <nciodm:PreferredTerm>Microbial EC50 Fold Change from Reference</nciodm:PreferredTerm>
                </EnumeratedItem>
                <EnumeratedItem CodedValue="Microbial EC50 Reference Control Result" nciodm:ExtCodeID="C139116">
                    <nciodm:CDISCSynonym>Microbial EC50 Reference Control Result</nciodm:CDISCSynonym>
                    <nciodm:CDISCDefinition>A reference control sample response based on the concentration of a specific drug expected to produce 50 percent inhibition of the population growth or replication of a microbial organism. (NCI)</nciodm:CDISCDefinition>
                    <nciodm:PreferredTerm>Microbial EC50 Reference Control Result</nciodm:PreferredTerm>
                </EnumeratedItem>
                <EnumeratedItem CodedValue="Microbial EC50 Subject Result" nciodm:ExtCodeID="C139117">
                    <nciodm:CDISCSynonym>Microbial EC50 Subject Result</nciodm:CDISCSynonym>
                    <nciodm:CDISCDefinition>A measurement of titer of a microbial organism that has been exposed to the concentration of a specific drug expected to produce 50 percent inhibition of the population growth or replication of a microbial organism. (NCI)</nciodm:CDISCDefinition>
                    <nciodm:PreferredTerm>Microbial EC50 Subject Result</nciodm:PreferredTerm>
                </EnumeratedItem>
                <EnumeratedItem CodedValue="Microbial IC50 Fold Change from Baseline" nciodm:ExtCodeID="C139118">
                    <nciodm:CDISCSynonym>Microbial IC50 Fold Change from Baseline</nciodm:CDISCSynonym>
                    <nciodm:CDISCDefinition>A fold change based on the concentration of a specific drug expected to produce 50 percent inhibition on the enzymatic activity of a microbial organism. It is a ratio calculated by the current IC50 Subject Result divided by the IC50 Subject Result from the baseline visit.</nciodm:CDISCDefinition>
                    <nciodm:PreferredTerm>Microbial IC50 Fold Change from Baseline</nciodm:PreferredTerm>
                </EnumeratedItem>
                <EnumeratedItem CodedValue="Microbial IC50 Fold Change from Ref" nciodm:ExtCodeID="C139119">
                    <nciodm:CDISCSynonym>Microbial IC50 Fold Change from Ref</nciodm:CDISCSynonym>
                    <nciodm:CDISCSynonym>Microbial IC50 Fold Change from Reference</nciodm:CDISCSynonym>
                    <nciodm:CDISCDefinition>A fold change based on the concentration of a specific drug expected to produce 50 percent inhibition on the enzymatic activity of a microbial organism. It is a ratio calculated by the IC50 Subject Result divided by the IC50 Reference Control Result.</nciodm:CDISCDefinition>
                    <nciodm:PreferredTerm>Microbial IC50 Fold Change from Reference</nciodm:PreferredTerm>
                </EnumeratedItem>
                <EnumeratedItem CodedValue="Microbial IC50 Reference Control Result" nciodm:ExtCodeID="C139120">
                    <nciodm:CDISCSynonym>Microbial IC50 Reference Control Result</nciodm:CDISCSynonym>
                    <nciodm:CDISCDefinition>A reference control sample response based on the concentration of a specific drug expected to produce 50 percent inhibition on the enzymatic activity of a microbial organism.</nciodm:CDISCDefinition>
                    <nciodm:PreferredTerm>Microbial IC50 Reference Control Result</nciodm:PreferredTerm>
                </EnumeratedItem>
                <EnumeratedItem CodedValue="Microbial IC50 Subject Result" nciodm:ExtCodeID="C139121">
                    <nciodm:CDISCSynonym>Microbial IC50 Subject Result</nciodm:CDISCSynonym>
                    <nciodm:CDISCDefinition>A measurement of biological/biochemical reaction of a microbial organism that has been exposed to the concentration of a specific drug expected to produce 50 percent inhibition on the enzymatic activity of a microbial organism.</nciodm:CDISCDefinition>
                    <nciodm:PreferredTerm>Microbial IC50 Subject Result</nciodm:PreferredTerm>
                </EnumeratedItem>
                <EnumeratedItem CodedValue="Microbial IC95 Fold Change from Baseline" nciodm:ExtCodeID="C139122">
                    <nciodm:CDISCSynonym>IC95 Fold Change from Baseline</nciodm:CDISCSynonym>
                    <nciodm:CDISCSynonym>Microbial IC95 Fold Change from Baseline</nciodm:CDISCSynonym>
                    <nciodm:CDISCDefinition>A fold change based on the concentration of a specific drug expected to produce 95 percent inhibition on the enzymatic activity of a microbial organism. It is a ratio calculated by the current IC95 Subject Result divided by the IC95 Subject Result from the baseline visit.</nciodm:CDISCDefinition>
                    <nciodm:PreferredTerm>Microbial IC95 Fold Change from Baseline</nciodm:PreferredTerm>
                </EnumeratedItem>
                <EnumeratedItem CodedValue="Microbial IC95 Fold Change from Ref" nciodm:ExtCodeID="C139123">
                    <nciodm:CDISCSynonym>IC95 Fold Change from Reference</nciodm:CDISCSynonym>
                    <nciodm:CDISCSynonym>Microbial IC95 Fold Change from Ref</nciodm:CDISCSynonym>
                    <nciodm:CDISCDefinition>A fold change based on the concentration of a specific drug expected to produce 95 percent inhibition on the enzymatic activity of a microbial organism. It is a ratio calculated by the IC95 Subject Result divided by the IC95 Reference Control Result.</nciodm:CDISCDefinition>
                    <nciodm:PreferredTerm>Microbial IC95 Fold Change from Ref</nciodm:PreferredTerm>
                </EnumeratedItem>
                <EnumeratedItem CodedValue="Microbial IC95 Reference Control Result" nciodm:ExtCodeID="C139124">
                    <nciodm:CDISCSynonym>IC95 Reference Control Result</nciodm:CDISCSynonym>
                    <nciodm:CDISCSynonym>Microbial IC95 Reference Control Result</nciodm:CDISCSynonym>
                    <nciodm:CDISCDefinition>A reference control sample response based on the concentration of a specific drug expected to produce 95 percent inhibition on the enzymatic activity of a microbial organism.</nciodm:CDISCDefinition>
                    <nciodm:PreferredTerm>Microbial IC95 Reference Control Result</nciodm:PreferredTerm>
                </EnumeratedItem>
                <EnumeratedItem CodedValue="Microbial IC95 Subject Result" nciodm:ExtCodeID="C139125">
                    <nciodm:CDISCSynonym>IC95 Subject Result</nciodm:CDISCSynonym>
                    <nciodm:CDISCSynonym>Microbial IC95 Subject Result</nciodm:CDISCSynonym>
                    <nciodm:CDISCDefinition>A measurement of biological/biochemical reaction of a microbial organism that has been exposed to the concentration of a specific drug expected to produce 95 percent inhibition on the enzymatic activity of a microbial organism.</nciodm:CDISCDefinition>
                    <nciodm:PreferredTerm>Microbial IC95 Subject Result</nciodm:PreferredTerm>
                </EnumeratedItem>
                <EnumeratedItem CodedValue="Microbial Susceptibility" nciodm:ExtCodeID="C85540">
                    <nciodm:CDISCSynonym>Microbial Susceptibility</nciodm:CDISCSynonym>
                    <nciodm:CDISCDefinition>A measurement of the response of the microbial organism to a controlled concentration of an antimicrobial agent.</nciodm:CDISCDefinition>
                    <nciodm:PreferredTerm>Microbial Susceptibility Test</nciodm:PreferredTerm>
                </EnumeratedItem>
                <EnumeratedItem CodedValue="Minimum Inhibitory Concentration" nciodm:ExtCodeID="C128985">
                    <nciodm:CDISCSynonym>Minimum Inhibitory Concentration</nciodm:CDISCSynonym>
                    <nciodm:CDISCDefinition>A measurement that specifies the minimum concentration of the agent at which organism growth was inhibited.</nciodm:CDISCDefinition>
                    <nciodm:PreferredTerm>Minimum Inhibitory Concentration Test</nciodm:PreferredTerm>
                </EnumeratedItem>
                <nciodm:CDISCSubmissionValue>MSTEST</nciodm:CDISCSubmissionValue>
                <nciodm:CDISCSynonym>Microbiology Susceptibility Test Name</nciodm:CDISCSynonym>
                <nciodm:PreferredTerm>CDISC SDTM Microbiology Susceptibility Test Name Terminology</nciodm:PreferredTerm>
            </CodeList>
            
