<CodeList xmlns="http://www.cdisc.org/ns/odm/v1.3" xmlns:nciodm="http://ncicb.nci.nih.gov/xml/odm/EVS/CDISC" xmlns:xs="http://www.w3.org/2001/XMLSchema-instance" OID="CL.C138232.PQL13TN" Name="Pediatric Quality of Life Neuromuscular Module Acute Version 3 Teen Parent Report Questionnaire Test Name" DataType="text" nciodm:ExtCodeID="C138232" nciodm:CodeListExtensible="No">
                <Description>
                    <TranslatedText xml:lang="en">Pediatric Quality of Life Neuromuscular Module Acute Version 3 Teen Parent Report test name.</TranslatedText>
                </Description>
                <EnumeratedItem CodedValue="PQL13-Back Feels Stiff" nciodm:ExtCodeID="C138545">
                    <nciodm:CDISCSynonym>PQL13-Back Feels Stiff</nciodm:CDISCSynonym>
                    <nciodm:CDISCDefinition>Pediatric Quality of Life Neuromuscular Module Acute Version 3 Teen Parent Report - In the past 7 days, how much of a problem has this been for your teen: My child's back feels stiff.</nciodm:CDISCDefinition>
                    <nciodm:PreferredTerm>PedsQL Neuromuscular Module Acute Version 3.0 Parent Report for Teen - Back Feels Stiff</nciodm:PreferredTerm>
                </EnumeratedItem>
                <EnumeratedItem CodedValue="PQL13-Do Not Have Equipment Need" nciodm:ExtCodeID="C138564">
                    <nciodm:CDISCSynonym>PQL13-Do Not Have Equipment Need</nciodm:CDISCSynonym>
                    <nciodm:CDISCDefinition>Pediatric Quality of Life Neuromuscular Module Acute Version 3 Teen Parent Report - In the past 7 days, how much of a problem has this been for your teen: My child does not have the equipment he or she needs.</nciodm:CDISCDefinition>
                    <nciodm:PreferredTerm>PedsQL Neuromuscular Module Acute Version 3.0 Parent Report for Teen - Do Not Have Equipment Need</nciodm:PreferredTerm>
                </EnumeratedItem>
                <EnumeratedItem CodedValue="PQL13-Family Has Lot of Problems" nciodm:ExtCodeID="C138563">
                    <nciodm:CDISCSynonym>PQL13-Family Has Lot of Problems</nciodm:CDISCSynonym>
                    <nciodm:CDISCDefinition>Pediatric Quality of Life Neuromuscular Module Acute Version 3 Teen Parent Report - In the past 7 days, how much of a problem has this been for your teen: I think our family has a lot of problems.</nciodm:CDISCDefinition>
                    <nciodm:PreferredTerm>PedsQL Neuromuscular Module Acute Version 3.0 Parent Report for Teen - Family Has Lot of Problems</nciodm:PreferredTerm>
                </EnumeratedItem>
                <EnumeratedItem CodedValue="PQL13-Feel Tired" nciodm:ExtCodeID="C138544">
                    <nciodm:CDISCSynonym>PQL13-Feel Tired</nciodm:CDISCSynonym>
                    <nciodm:CDISCDefinition>Pediatric Quality of Life Neuromuscular Module Acute Version 3 Teen Parent Report - In the past 7 days, how much of a problem has this been for your teen: My child feels tired.</nciodm:CDISCDefinition>
                    <nciodm:PreferredTerm>PedsQL Neuromuscular Module Acute Version 3.0 Parent Report for Teen - Feel Tired</nciodm:PreferredTerm>
                </EnumeratedItem>
                <EnumeratedItem CodedValue="PQL13-Get Hurt Accidentally" nciodm:ExtCodeID="C138553">
                    <nciodm:CDISCSynonym>PQL13-Get Hurt Accidentally</nciodm:CDISCSynonym>
                    <nciodm:CDISCDefinition>Pediatric Quality of Life Neuromuscular Module Acute Version 3 Teen Parent Report - In the past 7 days, how much of a problem has this been for your teen: My child gets hurt accidentally.</nciodm:CDISCDefinition>
                    <nciodm:PreferredTerm>PedsQL Neuromuscular Module Acute Version 3.0 Parent Report for Teen - Get Hurt Accidentally</nciodm:PreferredTerm>
                </EnumeratedItem>
                <EnumeratedItem CodedValue="PQL13-Get Sick Easily" nciodm:ExtCodeID="C138541">
                    <nciodm:CDISCSynonym>PQL13-Get Sick Easily</nciodm:CDISCSynonym>
                    <nciodm:CDISCDefinition>Pediatric Quality of Life Neuromuscular Module Acute Version 3 Teen Parent Report - In the past 7 days, how much of a problem has this been for your teen: My child gets sick easily.</nciodm:CDISCDefinition>
                    <nciodm:PreferredTerm>PedsQL Neuromuscular Module Acute Version 3.0 Parent Report for Teen - Get Sick Easily</nciodm:PreferredTerm>
                </EnumeratedItem>
                <EnumeratedItem CodedValue="PQL13-Get Sores and/or Rashes" nciodm:ExtCodeID="C138542">
                    <nciodm:CDISCSynonym>PQL13-Get Sores and/or Rashes</nciodm:CDISCSynonym>
                    <nciodm:CDISCDefinition>Pediatric Quality of Life Neuromuscular Module Acute Version 3 Teen Parent Report - In the past 7 days, how much of a problem has this been for your teen: My child gets sores and/or rashes.</nciodm:CDISCDefinition>
                    <nciodm:PreferredTerm>PedsQL Neuromuscular Module Acute Version 3.0 Parent Report for Teen - Get Sores and/or Rashes</nciodm:PreferredTerm>
                </EnumeratedItem>
                <EnumeratedItem CodedValue="PQL13-Hands Are Weak" nciodm:ExtCodeID="C138547">
                    <nciodm:CDISCSynonym>PQL13-Hands Are Weak</nciodm:CDISCSynonym>
                    <nciodm:CDISCDefinition>Pediatric Quality of Life Neuromuscular Module Acute Version 3 Teen Parent Report - In the past 7 days, how much of a problem has this been for your teen: My child's hands are weak.</nciodm:CDISCDefinition>
                    <nciodm:PreferredTerm>PedsQL Neuromuscular Module Acute Version 3.0 Parent Report for Teen - Hands Are Weak</nciodm:PreferredTerm>
                </EnumeratedItem>
                <EnumeratedItem CodedValue="PQL13-Hard Ask Doctors/Nurses Questions" nciodm:ExtCodeID="C138558">
                    <nciodm:CDISCSynonym>PQL13-Hard Ask Doctors/Nurses Questions</nciodm:CDISCSynonym>
                    <nciodm:CDISCDefinition>Pediatric Quality of Life Neuromuscular Module Acute Version 3 Teen Parent Report - In the past 7 days, how much of a problem has this been for your teen: It is hard for my child to ask the doctors and nurses questions.</nciodm:CDISCDefinition>
                    <nciodm:PreferredTerm>PedsQL Neuromuscular Module Acute Version 3.0 Parent Report for Teen - Hard Ask Doctors and Nurses Questions</nciodm:PreferredTerm>
                </EnumeratedItem>
                <EnumeratedItem CodedValue="PQL13-Hard Explain Illness to People" nciodm:ExtCodeID="C138559">
                    <nciodm:CDISCSynonym>PQL13-Hard Explain Illness to People</nciodm:CDISCSynonym>
                    <nciodm:CDISCDefinition>Pediatric Quality of Life Neuromuscular Module Acute Version 3 Teen Parent Report - In the past 7 days, how much of a problem has this been for your teen: It is hard for my child to explain his or her illness to other people.</nciodm:CDISCDefinition>
                    <nciodm:PreferredTerm>PedsQL Neuromuscular Module Acute Version 3.0 Parent Report for Teen - Hard Explain Illness to People</nciodm:PreferredTerm>
                </EnumeratedItem>
                <EnumeratedItem CodedValue="PQL13-Hard for Family to Plan Activities" nciodm:ExtCodeID="C138560">
                    <nciodm:CDISCSynonym>PQL13-Hard for Family to Plan Activities</nciodm:CDISCSynonym>
                    <nciodm:CDISCDefinition>Pediatric Quality of Life Neuromuscular Module Acute Version 3 Teen Parent Report - In the past 7 days, how much of a problem has this been for your teen: It is hard for our family to plan activities like vacations.</nciodm:CDISCDefinition>
                    <nciodm:PreferredTerm>PedsQL Neuromuscular Module Acute Version 3.0 Parent Report for Teen - Hard for Family to Plan Activities</nciodm:PreferredTerm>
                </EnumeratedItem>
                <EnumeratedItem CodedValue="PQL13-Hard for Family to Rest" nciodm:ExtCodeID="C138561">
                    <nciodm:CDISCSynonym>PQL13-Hard for Family to Rest</nciodm:CDISCSynonym>
                    <nciodm:CDISCDefinition>Pediatric Quality of Life Neuromuscular Module Acute Version 3 Teen Parent Report - In the past 7 days, how much of a problem has this been for your teen: It is hard for our family to get enough rest.</nciodm:CDISCDefinition>
                    <nciodm:PreferredTerm>PedsQL Neuromuscular Module Acute Version 3.0 Parent Report for Teen - Hard for Family to Rest</nciodm:PreferredTerm>
                </EnumeratedItem>
                <EnumeratedItem CodedValue="PQL13-Hard Tell Doctors/Nurses How Feel" nciodm:ExtCodeID="C138557">
                    <nciodm:CDISCSynonym>PQL13-Hard Tell Doctors/Nurses How Feel</nciodm:CDISCSynonym>
                    <nciodm:CDISCDefinition>Pediatric Quality of Life Neuromuscular Module Acute Version 3 Teen Parent Report - In the past 7 days, how much of a problem has this been for your teen: It is hard for my child to tell the doctors and nurses how he or she feels.</nciodm:CDISCDefinition>
                    <nciodm:PreferredTerm>PedsQL Neuromuscular Module Acute Version 3.0 Parent Report for Teen - Hard Tell Doctors and Nurses How Feel</nciodm:PreferredTerm>
                </EnumeratedItem>
                <EnumeratedItem CodedValue="PQL13-Hard to Breathe" nciodm:ExtCodeID="C138540">
                    <nciodm:CDISCSynonym>PQL13-Hard to Breathe</nciodm:CDISCSynonym>
                    <nciodm:CDISCDefinition>Pediatric Quality of Life Neuromuscular Module Acute Version 3 Teen Parent Report - In the past 7 days, how much of a problem has this been for your teen: It is hard for my child to breathe.</nciodm:CDISCDefinition>
                    <nciodm:PreferredTerm>PedsQL Neuromuscular Module Acute Version 3.0 Parent Report for Teen - Hard to Breathe</nciodm:PreferredTerm>
                </EnumeratedItem>
                <EnumeratedItem CodedValue="PQL13-Hard to Gain/Lose Weight" nciodm:ExtCodeID="C138549">
                    <nciodm:CDISCSynonym>PQL13-Hard to Gain/Lose Weight</nciodm:CDISCSynonym>
                    <nciodm:CDISCDefinition>Pediatric Quality of Life Neuromuscular Module Acute Version 3 Teen Parent Report - In the past 7 days, how much of a problem has this been for your teen: It is hard for my child to gain or lose weight when he or she wants to.</nciodm:CDISCDefinition>
                    <nciodm:PreferredTerm>PedsQL Neuromuscular Module Acute Version 3.0 Parent Report for Teen - Hard to Gain or Lose Weight</nciodm:PreferredTerm>
                </EnumeratedItem>
                <EnumeratedItem CodedValue="PQL13-Hard to Go Places With Equipment" nciodm:ExtCodeID="C138556">
                    <nciodm:CDISCSynonym>PQL13-Hard to Go Places With Equipment</nciodm:CDISCSynonym>
                    <nciodm:CDISCDefinition>Pediatric Quality of Life Neuromuscular Module Acute Version 3 Teen Parent Report - In the past 7 days, how much of a problem has this been for your teen: It is hard for my child to go places with his or her equipment.</nciodm:CDISCDefinition>
                    <nciodm:PreferredTerm>PedsQL Neuromuscular Module Acute Version 3.0 Parent Report for Teen - Hard to Go Places With Equipment</nciodm:PreferredTerm>
                </EnumeratedItem>
                <EnumeratedItem CodedValue="PQL13-Hard to Swallow Food" nciodm:ExtCodeID="C138551">
                    <nciodm:CDISCSynonym>PQL13-Hard to Swallow Food</nciodm:CDISCSynonym>
                    <nciodm:CDISCDefinition>Pediatric Quality of Life Neuromuscular Module Acute Version 3 Teen Parent Report - In the past 7 days, how much of a problem has this been for your teen: It is hard for my child to swallow food.</nciodm:CDISCDefinition>
                    <nciodm:PreferredTerm>PedsQL Neuromuscular Module Acute Version 3.0 Parent Report for Teen - Hard to Swallow Food</nciodm:PreferredTerm>
                </EnumeratedItem>
                <EnumeratedItem CodedValue="PQL13-Hard to Turn During Night" nciodm:ExtCodeID="C138555">
                    <nciodm:CDISCSynonym>PQL13-Hard to Turn During Night</nciodm:CDISCSynonym>
                    <nciodm:CDISCDefinition>Pediatric Quality of Life Neuromuscular Module Acute Version 3 Teen Parent Report - In the past 7 days, how much of a problem has this been for your teen: It is hard for my child to turn him or herself during the night.</nciodm:CDISCDefinition>
                    <nciodm:PreferredTerm>PedsQL Neuromuscular Module Acute Version 3.0 Parent Report for Teen - Hard to Turn During Night</nciodm:PreferredTerm>
                </EnumeratedItem>
                <EnumeratedItem CodedValue="PQL13-Hard to Use Bathroom" nciodm:ExtCodeID="C138548">
                    <nciodm:CDISCSynonym>PQL13-Hard to Use Bathroom</nciodm:CDISCSynonym>
                    <nciodm:CDISCDefinition>Pediatric Quality of Life Neuromuscular Module Acute Version 3 Teen Parent Report - In the past 7 days, how much of a problem has this been for your teen: It is hard for my child to use the bathroom.</nciodm:CDISCDefinition>
                    <nciodm:PreferredTerm>PedsQL Neuromuscular Module Acute Version 3.0 Parent Report for Teen - Hard to Use Bathroom</nciodm:PreferredTerm>
                </EnumeratedItem>
                <EnumeratedItem CodedValue="PQL13-Hard to Use Hands" nciodm:ExtCodeID="C138550">
                    <nciodm:CDISCSynonym>PQL13-Hard to Use Hands</nciodm:CDISCSynonym>
                    <nciodm:CDISCDefinition>Pediatric Quality of Life Neuromuscular Module Acute Version 3 Teen Parent Report - In the past 7 days, how much of a problem has this been for your teen: It is hard for my child to use his or her hands.</nciodm:CDISCDefinition>
                    <nciodm:PreferredTerm>PedsQL Neuromuscular Module Acute Version 3.0 Parent Report for Teen - Hard to Use Hands</nciodm:PreferredTerm>
                </EnumeratedItem>
                <EnumeratedItem CodedValue="PQL13-Legs Hurt" nciodm:ExtCodeID="C138543">
                    <nciodm:CDISCSynonym>PQL13-Legs Hurt</nciodm:CDISCSynonym>
                    <nciodm:CDISCDefinition>Pediatric Quality of Life Neuromuscular Module Acute Version 3 Teen Parent Report - In the past 7 days, how much of a problem has this been for your teen: My child's legs hurt.</nciodm:CDISCDefinition>
                    <nciodm:PreferredTerm>PedsQL Neuromuscular Module Acute Version 3.0 Parent Report for Teen - Legs Hurt</nciodm:PreferredTerm>
                </EnumeratedItem>
                <EnumeratedItem CodedValue="PQL13-Long Time to Bathe/Shower" nciodm:ExtCodeID="C138552">
                    <nciodm:CDISCSynonym>PQL13-Long Time to Bathe/Shower</nciodm:CDISCSynonym>
                    <nciodm:CDISCDefinition>Pediatric Quality of Life Neuromuscular Module Acute Version 3 Teen Parent Report - In the past 7 days, how much of a problem has this been for your teen: It takes my child a long time to bathe or shower.</nciodm:CDISCDefinition>
                    <nciodm:PreferredTerm>PedsQL Neuromuscular Module Acute Version 3.0 Parent Report for Teen - Long Time to Bathe or Shower</nciodm:PreferredTerm>
                </EnumeratedItem>
                <EnumeratedItem CodedValue="PQL13-Money Problem in Our Family" nciodm:ExtCodeID="C138562">
                    <nciodm:CDISCSynonym>PQL13-Money Problem in Our Family</nciodm:CDISCSynonym>
                    <nciodm:CDISCDefinition>Pediatric Quality of Life Neuromuscular Module Acute Version 3 Teen Parent Report - In the past 7 days, how much of a problem has this been for your teen: I think money is a problem in our family.</nciodm:CDISCDefinition>
                    <nciodm:PreferredTerm>PedsQL Neuromuscular Module Acute Version 3.0 Parent Report for Teen - Money Problem in Our Family</nciodm:PreferredTerm>
                </EnumeratedItem>
                <EnumeratedItem CodedValue="PQL13-Take Long Time to Eat" nciodm:ExtCodeID="C138554">
                    <nciodm:CDISCSynonym>PQL13-Take Long Time to Eat</nciodm:CDISCSynonym>
                    <nciodm:CDISCDefinition>Pediatric Quality of Life Neuromuscular Module Acute Version 3 Teen Parent Report - In the past 7 days, how much of a problem has this been for your teen: My child takes a long time to eat.</nciodm:CDISCDefinition>
                    <nciodm:PreferredTerm>PedsQL Neuromuscular Module Acute Version 3.0 Parent Report for Teen - Take Long Time to Eat</nciodm:PreferredTerm>
                </EnumeratedItem>
                <EnumeratedItem CodedValue="PQL13-Wake Up Tired" nciodm:ExtCodeID="C138546">
                    <nciodm:CDISCSynonym>PQL13-Wake Up Tired</nciodm:CDISCSynonym>
                    <nciodm:CDISCDefinition>Pediatric Quality of Life Neuromuscular Module Acute Version 3 Teen Parent Report - In the past 7 days, how much of a problem has this been for your teen: My child wakes up tired.</nciodm:CDISCDefinition>
                    <nciodm:PreferredTerm>PedsQL Neuromuscular Module Acute Version 3.0 Parent Report for Teen - Wake Up Tired</nciodm:PreferredTerm>
                </EnumeratedItem>
                <nciodm:CDISCSubmissionValue>PQL13TN</nciodm:CDISCSubmissionValue>
                <nciodm:CDISCSynonym>Pediatric Quality of Life Neuromuscular Module Acute Version 3 Teen Parent Report Questionnaire Test Name</nciodm:CDISCSynonym>
                <nciodm:PreferredTerm>CDISC Questionnaire PedsQL Neuromuscular Module Acute Version 3.0 Parent Report for Teen Test Name Terminology</nciodm:PreferredTerm>
            </CodeList>
            
