<CodeList xmlns="http://www.cdisc.org/ns/odm/v1.3" xmlns:nciodm="http://ncicb.nci.nih.gov/xml/odm/EVS/CDISC" xmlns:xs="http://www.w3.org/2001/XMLSchema-instance" OID="CL.C138218.PUL02TN" Name="Performance of the Upper Limb Module for DMD Version 2.0 Functional Test Test Name" DataType="text" nciodm:ExtCodeID="C138218" nciodm:CodeListExtensible="No">
                <Description>
                    <TranslatedText xml:lang="en">Performance of the Upper Limb Module for DMD Version 2.0 test name.</TranslatedText>
                </Description>
                <EnumeratedItem CodedValue="PUL02-Distal Wrist/Hand Dimension" nciodm:ExtCodeID="C138427">
                    <nciodm:CDISCSynonym>PUL02-Distal Wrist/Hand Dimension</nciodm:CDISCSynonym>
                    <nciodm:CDISCDefinition>Performance of the Upper Limb Module for DMD Version 2.0 - Distal wrist and hand dimension score.</nciodm:CDISCDefinition>
                    <nciodm:PreferredTerm>PUL 2.0 - Distal Wrist or Hand Dimension</nciodm:PreferredTerm>
                </EnumeratedItem>
                <EnumeratedItem CodedValue="PUL02-Entry Item" nciodm:ExtCodeID="C138397">
                    <nciodm:CDISCSynonym>PUL02-Entry Item</nciodm:CDISCSynonym>
                    <nciodm:CDISCDefinition>Performance of the Upper Limb Module for DMD Version 2.0 - Entry item.</nciodm:CDISCDefinition>
                    <nciodm:PreferredTerm>PUL 2.0 - Entry Item</nciodm:PreferredTerm>
                </EnumeratedItem>
                <EnumeratedItem CodedValue="PUL02-Flexion Above Shoulder Height 1kg" nciodm:ExtCodeID="C138403">
                    <nciodm:CDISCSynonym>PUL02-Flexion Above Shoulder Height 1kg</nciodm:CDISCSynonym>
                    <nciodm:CDISCDefinition>Performance of the Upper Limb Module for DMD Version 2.0 - Shoulder flexion above shoulder with 1 kg weight.</nciodm:CDISCDefinition>
                    <nciodm:PreferredTerm>PUL 2.0 - Flexion Above Shoulder Height 1kg</nciodm:PreferredTerm>
                </EnumeratedItem>
                <EnumeratedItem CodedValue="PUL02-Flexion Above Shoulder Height 500g" nciodm:ExtCodeID="C138402">
                    <nciodm:CDISCSynonym>PUL02-Flexion Above Shoulder Height 500g</nciodm:CDISCSynonym>
                    <nciodm:CDISCDefinition>Performance of the Upper Limb Module for DMD Version 2.0 - Shoulder flexion above shoulder height with 500g weight.</nciodm:CDISCDefinition>
                    <nciodm:PreferredTerm>PUL 2.0 - Flexion Above Shoulder Height 500g</nciodm:PreferredTerm>
                </EnumeratedItem>
                <EnumeratedItem CodedValue="PUL02-Flexion Shoulder Height No Weights" nciodm:ExtCodeID="C138400">
                    <nciodm:CDISCSynonym>PUL02-Flexion Shoulder Height No Weights</nciodm:CDISCSynonym>
                    <nciodm:CDISCDefinition>Performance of the Upper Limb Module for DMD Version 2.0 - Shoulder flexion to shoulder height (no weights).</nciodm:CDISCDefinition>
                    <nciodm:PreferredTerm>PUL 2.0 - Flexion Shoulder Height No Weights</nciodm:PreferredTerm>
                </EnumeratedItem>
                <EnumeratedItem CodedValue="PUL02-Flexion to Shoulder Height 500g" nciodm:ExtCodeID="C138401">
                    <nciodm:CDISCSynonym>PUL02-Flexion to Shoulder Height 500g</nciodm:CDISCSynonym>
                    <nciodm:CDISCDefinition>Performance of the Upper Limb Module for DMD Version 2.0 - Shoulder flexion to shoulder height with 500g weight.</nciodm:CDISCDefinition>
                    <nciodm:PreferredTerm>PUL 2.0 - Flexion to Shoulder Height 500g</nciodm:PreferredTerm>
                </EnumeratedItem>
                <EnumeratedItem CodedValue="PUL02-Hand(s) to Mouth" nciodm:ExtCodeID="C138404">
                    <nciodm:CDISCSynonym>PUL02-Hand(s) to Mouth</nciodm:CDISCSynonym>
                    <nciodm:CDISCDefinition>Performance of the Upper Limb Module for DMD Version 2.0 - Hand(s) to mouth.</nciodm:CDISCDefinition>
                    <nciodm:PreferredTerm>PUL 2.0 - Hand(s) to Mouth</nciodm:PreferredTerm>
                </EnumeratedItem>
                <EnumeratedItem CodedValue="PUL02-Hands to Table From Lap" nciodm:ExtCodeID="C138405">
                    <nciodm:CDISCSynonym>PUL02-Hands to Table From Lap</nciodm:CDISCSynonym>
                    <nciodm:CDISCDefinition>Performance of the Upper Limb Module for DMD Version 2.0 - Hands to table from lap.</nciodm:CDISCDefinition>
                    <nciodm:PreferredTerm>PUL 2.0 - Hands to Table From Lap</nciodm:PreferredTerm>
                </EnumeratedItem>
                <EnumeratedItem CodedValue="PUL02-High Level Shoulder Dimension" nciodm:ExtCodeID="C138425">
                    <nciodm:CDISCSynonym>PUL02-High Level Shoulder Dimension</nciodm:CDISCSynonym>
                    <nciodm:CDISCDefinition>Performance of the Upper Limb Module for DMD Version 2.0 - High level shoulder dimension score.</nciodm:CDISCDefinition>
                    <nciodm:PreferredTerm>PUL 2.0 - High Level Shoulder Dimension</nciodm:PreferredTerm>
                </EnumeratedItem>
                <EnumeratedItem CodedValue="PUL02-Left Available Supination ROM" nciodm:ExtCodeID="C138424">
                    <nciodm:CDISCSynonym>PUL02-Left Available Supination ROM</nciodm:CDISCSynonym>
                    <nciodm:CDISCDefinition>Performance of the Upper Limb Module for DMD Version 2.0 - Left available supination ROM.</nciodm:CDISCDefinition>
                    <nciodm:PreferredTerm>PUL 2.0 - Left Available Supination ROM</nciodm:PreferredTerm>
                </EnumeratedItem>
                <EnumeratedItem CodedValue="PUL02-Left Elbow Extension ROM" nciodm:ExtCodeID="C138422">
                    <nciodm:CDISCSynonym>PUL02-Left Elbow Extension ROM</nciodm:CDISCSynonym>
                    <nciodm:CDISCDefinition>Performance of the Upper Limb Module for DMD Version 2.0 - Left elbow extension ROM.</nciodm:CDISCDefinition>
                    <nciodm:PreferredTerm>PUL 2.0 - Left Elbow Extension ROM</nciodm:PreferredTerm>
                </EnumeratedItem>
                <EnumeratedItem CodedValue="PUL02-Lift Heavy Can Diagonally" nciodm:ExtCodeID="C138409">
                    <nciodm:CDISCSynonym>PUL02-Lift Heavy Can Diagonally</nciodm:CDISCSynonym>
                    <nciodm:CDISCDefinition>Performance of the Upper Limb Module for DMD Version 2.0 - Lift heavy can diagonally.</nciodm:CDISCDefinition>
                    <nciodm:PreferredTerm>PUL 2.0 - Lift Heavy Can Diagonally</nciodm:PreferredTerm>
                </EnumeratedItem>
                <EnumeratedItem CodedValue="PUL02-Mid Level Elbow Dimension" nciodm:ExtCodeID="C138426">
                    <nciodm:CDISCSynonym>PUL02-Mid Level Elbow Dimension</nciodm:CDISCSynonym>
                    <nciodm:CDISCDefinition>Performance of the Upper Limb Module for DMD Version 2.0 - Mid level elbow dimension score.</nciodm:CDISCDefinition>
                    <nciodm:PreferredTerm>PUL 2.0 - Mid Level Elbow Dimension</nciodm:PreferredTerm>
                </EnumeratedItem>
                <EnumeratedItem CodedValue="PUL02-Move Weight on Table 100g" nciodm:ExtCodeID="C138406">
                    <nciodm:CDISCSynonym>PUL02-Move Weight on Table 100g</nciodm:CDISCSynonym>
                    <nciodm:CDISCDefinition>Performance of the Upper Limb Module for DMD Version 2.0 - Move weight on table 100g.</nciodm:CDISCDefinition>
                    <nciodm:PreferredTerm>PUL 2.0 - Move Weight On Table 100g</nciodm:PreferredTerm>
                </EnumeratedItem>
                <EnumeratedItem CodedValue="PUL02-Move Weight on Table 1kg" nciodm:ExtCodeID="C138408">
                    <nciodm:CDISCSynonym>PUL02-Move Weight on Table 1kg</nciodm:CDISCSynonym>
                    <nciodm:CDISCDefinition>Performance of the Upper Limb Module for DMD Version 2.0 - Move weight on table 1kg.</nciodm:CDISCDefinition>
                    <nciodm:PreferredTerm>PUL 2.0 - Move Weight On Table 1kg</nciodm:PreferredTerm>
                </EnumeratedItem>
                <EnumeratedItem CodedValue="PUL02-Move Weight on Table 500g" nciodm:ExtCodeID="C138407">
                    <nciodm:CDISCSynonym>PUL02-Move Weight on Table 500g</nciodm:CDISCSynonym>
                    <nciodm:CDISCDefinition>Performance of the Upper Limb Module for DMD Version 2.0 - Move weight on table 500g.</nciodm:CDISCDefinition>
                    <nciodm:PreferredTerm>PUL 2.0 - Move Weight On Table 500g</nciodm:PreferredTerm>
                </EnumeratedItem>
                <EnumeratedItem CodedValue="PUL02-Pick Up 10g Weight Finger Pinch" nciodm:ExtCodeID="C138419">
                    <nciodm:CDISCSynonym>PUL02-Pick Up 10g Weight Finger Pinch</nciodm:CDISCSynonym>
                    <nciodm:CDISCDefinition>Performance of the Upper Limb Module for DMD Version 2.0 - Pick up 10g weight finger pinch.</nciodm:CDISCDefinition>
                    <nciodm:PreferredTerm>PUL 2.0 - Pick Up 10g Weight Finger Pinch</nciodm:PreferredTerm>
                </EnumeratedItem>
                <EnumeratedItem CodedValue="PUL02-Picking Up Coins" nciodm:ExtCodeID="C138417">
                    <nciodm:CDISCSynonym>PUL02-Picking Up Coins</nciodm:CDISCSynonym>
                    <nciodm:CDISCDefinition>Performance of the Upper Limb Module for DMD Version 2.0 - Picking up coins.</nciodm:CDISCDefinition>
                    <nciodm:PreferredTerm>PUL 2.0 - Picking Up Coins</nciodm:PreferredTerm>
                </EnumeratedItem>
                <EnumeratedItem CodedValue="PUL02-Placing Finger on Number Diagram" nciodm:ExtCodeID="C138418">
                    <nciodm:CDISCSynonym>PUL02-Placing Finger on Number Diagram</nciodm:CDISCSynonym>
                    <nciodm:CDISCDefinition>Performance of the Upper Limb Module for DMD Version 2.0 - Placing finger on number diagram.</nciodm:CDISCDefinition>
                    <nciodm:PreferredTerm>PUL 2.0 - Placing Finger on Number Diagram</nciodm:PreferredTerm>
                </EnumeratedItem>
                <EnumeratedItem CodedValue="PUL02-Preferred Arm" nciodm:ExtCodeID="C138420">
                    <nciodm:CDISCSynonym>PUL02-Preferred Arm</nciodm:CDISCSynonym>
                    <nciodm:CDISCDefinition>Performance of the Upper Limb Module for DMD Version 2.0 - Preferred arm.</nciodm:CDISCDefinition>
                    <nciodm:PreferredTerm>PUL 2.0 - Preferred Arm</nciodm:PreferredTerm>
                </EnumeratedItem>
                <EnumeratedItem CodedValue="PUL02-Push on Light" nciodm:ExtCodeID="C138415">
                    <nciodm:CDISCSynonym>PUL02-Push on Light</nciodm:CDISCSynonym>
                    <nciodm:CDISCDefinition>Performance of the Upper Limb Module for DMD Version 2.0 - Push on light.</nciodm:CDISCDefinition>
                    <nciodm:PreferredTerm>PUL 2.0 - Push on Light</nciodm:PreferredTerm>
                </EnumeratedItem>
                <EnumeratedItem CodedValue="PUL02-Raise Both Arms to Shoulder Height" nciodm:ExtCodeID="C138399">
                    <nciodm:CDISCSynonym>PUL02-Raise Both Arms to Shoulder Height</nciodm:CDISCSynonym>
                    <nciodm:CDISCDefinition>Performance of the Upper Limb Module for DMD Version 2.0 - Raise both arms to shoulder height (elbows at shoulder height).</nciodm:CDISCDefinition>
                    <nciodm:PreferredTerm>PUL 2.0 - Raise Both Arms to Shoulder Height</nciodm:PreferredTerm>
                </EnumeratedItem>
                <EnumeratedItem CodedValue="PUL02-Remove Lid From Container" nciodm:ExtCodeID="C138412">
                    <nciodm:CDISCSynonym>PUL02-Remove Lid From Container</nciodm:CDISCSynonym>
                    <nciodm:CDISCDefinition>Performance of the Upper Limb Module for DMD Version 2.0 - Remove lid from container.</nciodm:CDISCDefinition>
                    <nciodm:PreferredTerm>PUL 2.0 - Remove Lid From Container</nciodm:PreferredTerm>
                </EnumeratedItem>
                <EnumeratedItem CodedValue="PUL02-Right Available Supination ROM" nciodm:ExtCodeID="C138423">
                    <nciodm:CDISCSynonym>PUL02-Right Available Supination ROM</nciodm:CDISCSynonym>
                    <nciodm:CDISCDefinition>Performance of the Upper Limb Module for DMD Version 2.0 - Right available supination ROM.</nciodm:CDISCDefinition>
                    <nciodm:PreferredTerm>PUL 2.0 - Right Available Supination ROM</nciodm:PreferredTerm>
                </EnumeratedItem>
                <EnumeratedItem CodedValue="PUL02-Right Elbow Extension ROM" nciodm:ExtCodeID="C138421">
                    <nciodm:CDISCSynonym>PUL02-Right Elbow Extension ROM</nciodm:CDISCSynonym>
                    <nciodm:CDISCDefinition>Performance of the Upper Limb Module for DMD Version 2.0 - Right elbow extension ROM.</nciodm:CDISCDefinition>
                    <nciodm:PreferredTerm>PUL 2.0 - Right Elbow Extension ROM</nciodm:PreferredTerm>
                </EnumeratedItem>
                <EnumeratedItem CodedValue="PUL02-Shoulder Abduction Arms Above Head" nciodm:ExtCodeID="C138398">
                    <nciodm:CDISCSynonym>PUL02-Shoulder Abduction Arms Above Head</nciodm:CDISCSynonym>
                    <nciodm:CDISCDefinition>Performance of the Upper Limb Module for DMD Version 2.0 - Shoulder abduction both arms above head.</nciodm:CDISCDefinition>
                    <nciodm:PreferredTerm>PUL 2.0 - Shoulder Abduction Arms Above Head</nciodm:PreferredTerm>
                </EnumeratedItem>
                <EnumeratedItem CodedValue="PUL02-Stack of Five Cans" nciodm:ExtCodeID="C138411">
                    <nciodm:CDISCSynonym>PUL02-Stack of Five Cans</nciodm:CDISCSynonym>
                    <nciodm:CDISCDefinition>Performance of the Upper Limb Module for DMD Version 2.0 - Stack of five cans.</nciodm:CDISCDefinition>
                    <nciodm:PreferredTerm>PUL 2.0 - Stack of Five Cans</nciodm:PreferredTerm>
                </EnumeratedItem>
                <EnumeratedItem CodedValue="PUL02-Stack of Three Cans" nciodm:ExtCodeID="C138410">
                    <nciodm:CDISCSynonym>PUL02-Stack of Three Cans</nciodm:CDISCSynonym>
                    <nciodm:CDISCDefinition>Performance of the Upper Limb Module for DMD Version 2.0 - Stack of three cans.</nciodm:CDISCDefinition>
                    <nciodm:PreferredTerm>PUL 2.0 - Stack of Three Cans</nciodm:PreferredTerm>
                </EnumeratedItem>
                <EnumeratedItem CodedValue="PUL02-Supination" nciodm:ExtCodeID="C138416">
                    <nciodm:CDISCSynonym>PUL02-Supination</nciodm:CDISCSynonym>
                    <nciodm:CDISCDefinition>Performance of the Upper Limb Module for DMD Version 2.0 - Supination.</nciodm:CDISCDefinition>
                    <nciodm:PreferredTerm>PUL 2.0 - Supination</nciodm:PreferredTerm>
                </EnumeratedItem>
                <EnumeratedItem CodedValue="PUL02-Tearing Paper" nciodm:ExtCodeID="C138413">
                    <nciodm:CDISCSynonym>PUL02-Tearing Paper</nciodm:CDISCSynonym>
                    <nciodm:CDISCDefinition>Performance of the Upper Limb Module for DMD Version 2.0 - Tearing paper.</nciodm:CDISCDefinition>
                    <nciodm:PreferredTerm>PUL 2.0 - Tearing Paper</nciodm:PreferredTerm>
                </EnumeratedItem>
                <EnumeratedItem CodedValue="PUL02-Total Score" nciodm:ExtCodeID="C138428">
                    <nciodm:CDISCSynonym>PUL02-Total Score</nciodm:CDISCSynonym>
                    <nciodm:CDISCDefinition>Performance of the Upper Limb Module for DMD Version 2.0 - Total score.</nciodm:CDISCDefinition>
                    <nciodm:PreferredTerm>PUL 2.0 - Total Score</nciodm:PreferredTerm>
                </EnumeratedItem>
                <EnumeratedItem CodedValue="PUL02-Tracing Path" nciodm:ExtCodeID="C138414">
                    <nciodm:CDISCSynonym>PUL02-Tracing Path</nciodm:CDISCSynonym>
                    <nciodm:CDISCDefinition>Performance of the Upper Limb Module for DMD Version 2.0 - Tracing path.</nciodm:CDISCDefinition>
                    <nciodm:PreferredTerm>PUL 2.0 - Tracing Path</nciodm:PreferredTerm>
                </EnumeratedItem>
                <nciodm:CDISCSubmissionValue>PUL02TN</nciodm:CDISCSubmissionValue>
                <nciodm:CDISCSynonym>Performance of the Upper Limb Module for DMD Version 2.0 Functional Test Test Name</nciodm:CDISCSynonym>
                <nciodm:PreferredTerm>CDISC Functional Test PUL 2.0 Test Name Terminology</nciodm:PreferredTerm>
            </CodeList>
            
