<CodeList xmlns="http://www.cdisc.org/ns/odm/v1.3" xmlns:nciodm="http://ncicb.nci.nih.gov/xml/odm/EVS/CDISC" xmlns:xs="http://www.w3.org/2001/XMLSchema-instance" OID="CL.C112449.SGRQ01TC" Name="St. George's Respiratory Questionnaire Past 3 Months Version Questionnaire Test Code" DataType="text" nciodm:ExtCodeID="C112449" nciodm:CodeListExtensible="No">
                <Description>
                    <TranslatedText xml:lang="en">St. George's Respiratory Questionnaire Past 3 Months Version test code.</TranslatedText>
                </Description>
                <EnumeratedItem CodedValue="SGRQ0101" nciodm:ExtCodeID="C112627">
                    <nciodm:CDISCSynonym>SGRQ01-Describe Your Current Health</nciodm:CDISCSynonym>
                    <nciodm:CDISCDefinition>St. George's Respiratory Questionnaire Past 3 Months Version - Please check one box to show how you describe your current health.</nciodm:CDISCDefinition>
                    <nciodm:PreferredTerm>SGRQ Past 3 Months Version - Describe Your Current Health</nciodm:PreferredTerm>
                </EnumeratedItem>
                <EnumeratedItem CodedValue="SGRQ0102" nciodm:ExtCodeID="C112628">
                    <nciodm:CDISCSynonym>SGRQ01-I Have Coughed</nciodm:CDISCSynonym>
                    <nciodm:CDISCDefinition>St. George's Respiratory Questionnaire Past 3 Months Version - Over the past 3 months, I have coughed.</nciodm:CDISCDefinition>
                    <nciodm:PreferredTerm>SGRQ Past 3 Months Version - I Have Coughed</nciodm:PreferredTerm>
                </EnumeratedItem>
                <EnumeratedItem CodedValue="SGRQ0103" nciodm:ExtCodeID="C112629">
                    <nciodm:CDISCSynonym>SGRQ01-I Have Brought Up Phlegm</nciodm:CDISCSynonym>
                    <nciodm:CDISCDefinition>St. George's Respiratory Questionnaire Past 3 Months Version - Over the past 3 months, I have brought up phlegm (sputum).</nciodm:CDISCDefinition>
                    <nciodm:PreferredTerm>SGRQ Past 3 Months Version - I Have Brought Up Phlegm</nciodm:PreferredTerm>
                </EnumeratedItem>
                <EnumeratedItem CodedValue="SGRQ0104" nciodm:ExtCodeID="C112630">
                    <nciodm:CDISCSynonym>SGRQ01-I Have Had Shortness of Breath</nciodm:CDISCSynonym>
                    <nciodm:CDISCDefinition>St. George's Respiratory Questionnaire Past 3 Months Version - Over the past 3 months, I have had shortness of breath.</nciodm:CDISCDefinition>
                    <nciodm:PreferredTerm>SGRQ Past 3 Months Version - I Have Had Shortness of Breath</nciodm:PreferredTerm>
                </EnumeratedItem>
                <EnumeratedItem CodedValue="SGRQ0105" nciodm:ExtCodeID="C112631">
                    <nciodm:CDISCSynonym>SGRQ01-I Have Had Wheezing Attacks</nciodm:CDISCSynonym>
                    <nciodm:CDISCDefinition>St. George's Respiratory Questionnaire Past 3 Months Version - Over the past 3 months, I have had wheezing attacks.</nciodm:CDISCDefinition>
                    <nciodm:PreferredTerm>SGRQ Past 3 Months Version - I Have Had Wheezing Attacks</nciodm:PreferredTerm>
                </EnumeratedItem>
                <EnumeratedItem CodedValue="SGRQ0106" nciodm:ExtCodeID="C112632">
                    <nciodm:CDISCSynonym>SGRQ01-Times Suffered Sev Resp Attacks</nciodm:CDISCSynonym>
                    <nciodm:CDISCDefinition>St. George's Respiratory Questionnaire Past 3 Months Version - How many times during the past 3 months have you suffered from severe or very unpleasant respiratory attacks?</nciodm:CDISCDefinition>
                    <nciodm:PreferredTerm>SGRQ Past 3 Months Version - Times Suffered From Severe Respiratory Attacks</nciodm:PreferredTerm>
                </EnumeratedItem>
                <EnumeratedItem CodedValue="SGRQ0107" nciodm:ExtCodeID="C112633">
                    <nciodm:CDISCSynonym>SGRQ01-How Long Worst Resp Attack Last</nciodm:CDISCSynonym>
                    <nciodm:CDISCDefinition>St. George's Respiratory Questionnaire Past 3 Months Version - How long did the worst respiratory attack last?</nciodm:CDISCDefinition>
                    <nciodm:PreferredTerm>SGRQ Past 3 Months Version - How Long Did Worst Respiratory Attack Last</nciodm:PreferredTerm>
                </EnumeratedItem>
                <EnumeratedItem CodedValue="SGRQ0108" nciodm:ExtCodeID="C112634">
                    <nciodm:CDISCSynonym>SGRQ01-How Many Good Days Have You Had</nciodm:CDISCSynonym>
                    <nciodm:CDISCDefinition>St. George's Respiratory Questionnaire Past 3 Months Version - Over the past 3 months, in a typical week, how many good days (with few respiratory problems) have you had?</nciodm:CDISCDefinition>
                    <nciodm:PreferredTerm>SGRQ Past 3 Months Version - How Many Good Days You Had</nciodm:PreferredTerm>
                </EnumeratedItem>
                <EnumeratedItem CodedValue="SGRQ0109" nciodm:ExtCodeID="C112635">
                    <nciodm:CDISCSynonym>SGRQ01-Wheeze Worse in the Morning</nciodm:CDISCSynonym>
                    <nciodm:CDISCDefinition>St. George's Respiratory Questionnaire Past 3 Months Version - If you wheeze, is it worse when you get up in the morning?</nciodm:CDISCDefinition>
                    <nciodm:PreferredTerm>SGRQ Past 3 Months Version - Wheeze Worse When Get Up in the Morning</nciodm:PreferredTerm>
                </EnumeratedItem>
                <EnumeratedItem CodedValue="SGRQ0110" nciodm:ExtCodeID="C112636">
                    <nciodm:CDISCSynonym>SGRQ01-Describe Your Resp Condition</nciodm:CDISCSynonym>
                    <nciodm:CDISCDefinition>St. George's Respiratory Questionnaire Past 3 Months Version - How would you describe your respiratory condition?</nciodm:CDISCDefinition>
                    <nciodm:PreferredTerm>SGRQ Past 3 Months Version - Describe Your Respiratory Condition</nciodm:PreferredTerm>
                </EnumeratedItem>
                <EnumeratedItem CodedValue="SGRQ0111" nciodm:ExtCodeID="C112637">
                    <nciodm:CDISCSynonym>SGRQ01-If You Have Ever Held a Job</nciodm:CDISCSynonym>
                    <nciodm:CDISCDefinition>St. George's Respiratory Questionnaire Past 3 Months Version - If you have ever held a job.</nciodm:CDISCDefinition>
                    <nciodm:PreferredTerm>SGRQ Past 3 Months Version - Held a Job</nciodm:PreferredTerm>
                </EnumeratedItem>
                <EnumeratedItem CodedValue="SGRQ0112" nciodm:ExtCodeID="C112638">
                    <nciodm:CDISCSynonym>SGRQ01-Sitting or Lying Still</nciodm:CDISCSynonym>
                    <nciodm:CDISCDefinition>St. George's Respiratory Questionnaire Past 3 Months Version - These are questions about what activities usually make you feel short of breath these days: Sitting or lying still.</nciodm:CDISCDefinition>
                    <nciodm:PreferredTerm>SGRQ Past 3 Months Version - Sitting or Lying Still</nciodm:PreferredTerm>
                </EnumeratedItem>
                <EnumeratedItem CodedValue="SGRQ0113" nciodm:ExtCodeID="C112639">
                    <nciodm:CDISCSynonym>SGRQ01-Washing or Dressing Yourself</nciodm:CDISCSynonym>
                    <nciodm:CDISCDefinition>St. George's Respiratory Questionnaire Past 3 Months Version - These are questions about what activities usually make you feel short of breath these days: Washing or dressing yourself.</nciodm:CDISCDefinition>
                    <nciodm:PreferredTerm>SGRQ Past 3 Months Version - Washing or Dressing Yourself</nciodm:PreferredTerm>
                </EnumeratedItem>
                <EnumeratedItem CodedValue="SGRQ0114" nciodm:ExtCodeID="C112640">
                    <nciodm:CDISCSynonym>SGRQ01-Walking Around the House</nciodm:CDISCSynonym>
                    <nciodm:CDISCDefinition>St. George's Respiratory Questionnaire Past 3 Months Version - These are questions about what activities usually make you feel short of breath these days: Walking around the house.</nciodm:CDISCDefinition>
                    <nciodm:PreferredTerm>SGRQ Past 3 Months Version - Walking Around the House</nciodm:PreferredTerm>
                </EnumeratedItem>
                <EnumeratedItem CodedValue="SGRQ0115" nciodm:ExtCodeID="C112641">
                    <nciodm:CDISCSynonym>SGRQ01-Walking Outside on Level Ground</nciodm:CDISCSynonym>
                    <nciodm:CDISCDefinition>St. George's Respiratory Questionnaire Past 3 Months Version - These are questions about what activities usually make you feel short of breath these days: Walking outside on level ground.</nciodm:CDISCDefinition>
                    <nciodm:PreferredTerm>SGRQ Past 3 Months Version - Walking Outside on Level Ground</nciodm:PreferredTerm>
                </EnumeratedItem>
                <EnumeratedItem CodedValue="SGRQ0116" nciodm:ExtCodeID="C112642">
                    <nciodm:CDISCSynonym>SGRQ01-Walking Up a Flight of Stairs</nciodm:CDISCSynonym>
                    <nciodm:CDISCDefinition>St. George's Respiratory Questionnaire Past 3 Months Version - These are questions about what activities usually make you feel short of breath these days: Walking up a flight of stairs.</nciodm:CDISCDefinition>
                    <nciodm:PreferredTerm>SGRQ Past 3 Months Version - Walking Up a Flight of Stairs</nciodm:PreferredTerm>
                </EnumeratedItem>
                <EnumeratedItem CodedValue="SGRQ0117" nciodm:ExtCodeID="C112643">
                    <nciodm:CDISCSynonym>SGRQ01-Walking Up Hills</nciodm:CDISCSynonym>
                    <nciodm:CDISCDefinition>St. George's Respiratory Questionnaire Past 3 Months Version - These are questions about what activities usually make you feel short of breath these days: Walking up hills.</nciodm:CDISCDefinition>
                    <nciodm:PreferredTerm>SGRQ Past 3 Months Version - Walking Up Hills</nciodm:PreferredTerm>
                </EnumeratedItem>
                <EnumeratedItem CodedValue="SGRQ0118" nciodm:ExtCodeID="C112644">
                    <nciodm:CDISCSynonym>SGRQ01-Playing Sports</nciodm:CDISCSynonym>
                    <nciodm:CDISCDefinition>St. George's Respiratory Questionnaire Past 3 Months Version - These are questions about what activities usually make you feel short of breath these days: Playing sports or other physical activities.</nciodm:CDISCDefinition>
                    <nciodm:PreferredTerm>SGRQ Past 3 Months Version - Playing Sports or Other Physical Activities</nciodm:PreferredTerm>
                </EnumeratedItem>
                <EnumeratedItem CodedValue="SGRQ0119" nciodm:ExtCodeID="C112645">
                    <nciodm:CDISCSynonym>SGRQ01-Coughing Hurts</nciodm:CDISCSynonym>
                    <nciodm:CDISCDefinition>St. George's Respiratory Questionnaire Past 3 Months Version - These are more questions about your cough and shortness of breath these days: Coughing hurts.</nciodm:CDISCDefinition>
                    <nciodm:PreferredTerm>SGRQ Past 3 Months Version - Coughing Hurts</nciodm:PreferredTerm>
                </EnumeratedItem>
                <EnumeratedItem CodedValue="SGRQ0120" nciodm:ExtCodeID="C112646">
                    <nciodm:CDISCSynonym>SGRQ01-Coughing Makes Me Tired</nciodm:CDISCSynonym>
                    <nciodm:CDISCDefinition>St. George's Respiratory Questionnaire Past 3 Months Version - These are more questions about your cough and shortness of breath these days: Coughing makes me tired.</nciodm:CDISCDefinition>
                    <nciodm:PreferredTerm>SGRQ Past 3 Months Version - Coughing Makes Me Tired</nciodm:PreferredTerm>
                </EnumeratedItem>
                <EnumeratedItem CodedValue="SGRQ0121" nciodm:ExtCodeID="C112647">
                    <nciodm:CDISCSynonym>SGRQ01-Short of Breath When I Talk</nciodm:CDISCSynonym>
                    <nciodm:CDISCDefinition>St. George's Respiratory Questionnaire Past 3 Months Version - These are more questions about your cough and shortness of breath these days: I am short of breath when I talk.</nciodm:CDISCDefinition>
                    <nciodm:PreferredTerm>SGRQ Past 3 Months Version - Short of Breath When I Talk</nciodm:PreferredTerm>
                </EnumeratedItem>
                <EnumeratedItem CodedValue="SGRQ0122" nciodm:ExtCodeID="C112648">
                    <nciodm:CDISCSynonym>SGRQ01-Short of Breath When Bend Over</nciodm:CDISCSynonym>
                    <nciodm:CDISCDefinition>St. George's Respiratory Questionnaire Past 3 Months Version - These are more questions about your cough and shortness of breath these days: I am short of breath when I bend over.</nciodm:CDISCDefinition>
                    <nciodm:PreferredTerm>SGRQ Past 3 Months Version - Short of Breath When Bend Over</nciodm:PreferredTerm>
                </EnumeratedItem>
                <EnumeratedItem CodedValue="SGRQ0123" nciodm:ExtCodeID="C112649">
                    <nciodm:CDISCSynonym>SGRQ01-Coughing Disturbs My Sleep</nciodm:CDISCSynonym>
                    <nciodm:CDISCDefinition>St. George's Respiratory Questionnaire Past 3 Months Version - These are more questions about your cough and shortness of breath these days: My coughing or breathing disturbs my sleep.</nciodm:CDISCDefinition>
                    <nciodm:PreferredTerm>SGRQ Past 3 Months Version - Coughing Disturbs My Sleep</nciodm:PreferredTerm>
                </EnumeratedItem>
                <EnumeratedItem CodedValue="SGRQ0124" nciodm:ExtCodeID="C112650">
                    <nciodm:CDISCSynonym>SGRQ01-I Get Exhausted Easily</nciodm:CDISCSynonym>
                    <nciodm:CDISCDefinition>St. George's Respiratory Questionnaire Past 3 Months Version - These are more questions about your cough and shortness of breath these days: I get exhausted easily.</nciodm:CDISCDefinition>
                    <nciodm:PreferredTerm>SGRQ Past 3 Months Version - I Get Exhausted Easily</nciodm:PreferredTerm>
                </EnumeratedItem>
                <EnumeratedItem CodedValue="SGRQ0125" nciodm:ExtCodeID="C112651">
                    <nciodm:CDISCSynonym>SGRQ01-Cough Is Embarrassing in Public</nciodm:CDISCSynonym>
                    <nciodm:CDISCDefinition>St. George's Respiratory Questionnaire Past 3 Months Version - These are questions about other effects that your respiratory problems may have on you these days: My cough or breathing is embarrassing in public.</nciodm:CDISCDefinition>
                    <nciodm:PreferredTerm>SGRQ Past 3 Months Version - My Cough is Embarrassing in Public</nciodm:PreferredTerm>
                </EnumeratedItem>
                <EnumeratedItem CodedValue="SGRQ0126" nciodm:ExtCodeID="C112652">
                    <nciodm:CDISCSynonym>SGRQ01-Respiratory Problems a Nuisance</nciodm:CDISCSynonym>
                    <nciodm:CDISCDefinition>St. George's Respiratory Questionnaire Past 3 Months Version - These are questions about other effects that your respiratory problems may have on you these days: My respiratory problems are a nuisance to my family, friends or neighbors.</nciodm:CDISCDefinition>
                    <nciodm:PreferredTerm>SGRQ Past 3 Months Version - Respiratory Problems a Nuisance to Family</nciodm:PreferredTerm>
                </EnumeratedItem>
                <EnumeratedItem CodedValue="SGRQ0127" nciodm:ExtCodeID="C112653">
                    <nciodm:CDISCSynonym>SGRQ01-Afraid When Cannot Catch Breath</nciodm:CDISCSynonym>
                    <nciodm:CDISCDefinition>St. George's Respiratory Questionnaire Past 3 Months Version - These are questions about other effects that your respiratory problems may have on you these days: I get afraid or panic when I cannot catch my breath.</nciodm:CDISCDefinition>
                    <nciodm:PreferredTerm>SGRQ Past 3 Months Version - Get Afraid When Cannot Catch My Breath</nciodm:PreferredTerm>
                </EnumeratedItem>
                <EnumeratedItem CodedValue="SGRQ0128" nciodm:ExtCodeID="C112654">
                    <nciodm:CDISCSynonym>SGRQ01-Not in Control of Resp Problems</nciodm:CDISCSynonym>
                    <nciodm:CDISCDefinition>St. George's Respiratory Questionnaire Past 3 Months Version - These are questions about other effects that your respiratory problems may have on you these days: I feel that I am not in control of my respiratory problems.</nciodm:CDISCDefinition>
                    <nciodm:PreferredTerm>SGRQ Past 3 Months Version - Not in Control of My Respiratory Problems</nciodm:PreferredTerm>
                </EnumeratedItem>
                <EnumeratedItem CodedValue="SGRQ0129" nciodm:ExtCodeID="C112655">
                    <nciodm:CDISCSynonym>SGRQ01-Not Expect Probs to Get Better</nciodm:CDISCSynonym>
                    <nciodm:CDISCDefinition>St. George's Respiratory Questionnaire Past 3 Months Version - These are questions about other effects that your respiratory problems may have on you these days: I do not expect my respiratory problems to get any better.</nciodm:CDISCDefinition>
                    <nciodm:PreferredTerm>SGRQ Past 3 Months Version - Not Expect Respiratory Problems Get Better</nciodm:PreferredTerm>
                </EnumeratedItem>
                <EnumeratedItem CodedValue="SGRQ0130" nciodm:ExtCodeID="C112656">
                    <nciodm:CDISCSynonym>SGRQ01-I Have Become Frail</nciodm:CDISCSynonym>
                    <nciodm:CDISCDefinition>St. George's Respiratory Questionnaire Past 3 Months Version - These are questions about other effects that your respiratory problems may have on you these days: I have become frail or an invalid because of my respiratory problems.</nciodm:CDISCDefinition>
                    <nciodm:PreferredTerm>SGRQ Past 3 Months Version - Become Frail or Invalid Because of My Respiratory Problems</nciodm:PreferredTerm>
                </EnumeratedItem>
                <EnumeratedItem CodedValue="SGRQ0131" nciodm:ExtCodeID="C112657">
                    <nciodm:CDISCSynonym>SGRQ01-Exercise Is Not Safe for Me</nciodm:CDISCSynonym>
                    <nciodm:CDISCDefinition>St. George's Respiratory Questionnaire Past 3 Months Version - These are questions about other effects that your respiratory problems may have on you these days: Exercise is not safe for me.</nciodm:CDISCDefinition>
                    <nciodm:PreferredTerm>SGRQ Past 3 Months Version - Exercise Is Not Safe for Me</nciodm:PreferredTerm>
                </EnumeratedItem>
                <EnumeratedItem CodedValue="SGRQ0132" nciodm:ExtCodeID="C112658">
                    <nciodm:CDISCSynonym>SGRQ01-Everything Too Much Effort</nciodm:CDISCSynonym>
                    <nciodm:CDISCDefinition>St. George's Respiratory Questionnaire Past 3 Months Version - These are questions about other effects that your respiratory problems may have on you these days: Everything seems too much of an effort.</nciodm:CDISCDefinition>
                    <nciodm:PreferredTerm>SGRQ Past 3 Months Version - Everything Too Much Effort</nciodm:PreferredTerm>
                </EnumeratedItem>
                <EnumeratedItem CodedValue="SGRQ0133" nciodm:ExtCodeID="C112659">
                    <nciodm:CDISCSynonym>SGRQ01-Treatment Does Not Help Me Much</nciodm:CDISCSynonym>
                    <nciodm:CDISCDefinition>St. George's Respiratory Questionnaire Past 3 Months Version - These are questions about your respiratory treatment: My treatment does not help me very much.</nciodm:CDISCDefinition>
                    <nciodm:PreferredTerm>SGRQ Past 3 Months Version - Treatment Does Not Help Me Much</nciodm:PreferredTerm>
                </EnumeratedItem>
                <EnumeratedItem CodedValue="SGRQ0134" nciodm:ExtCodeID="C112660">
                    <nciodm:CDISCSynonym>SGRQ01-Embarrassed Using Med in Public</nciodm:CDISCSynonym>
                    <nciodm:CDISCDefinition>St. George's Respiratory Questionnaire Past 3 Months Version - These are questions about your respiratory treatment: I get embarrassed using my medication in public.</nciodm:CDISCDefinition>
                    <nciodm:PreferredTerm>SGRQ Past 3 Months Version - Embarrassed Using Medication in Public</nciodm:PreferredTerm>
                </EnumeratedItem>
                <EnumeratedItem CodedValue="SGRQ0135" nciodm:ExtCodeID="C112661">
                    <nciodm:CDISCSynonym>SGRQ01-Unpleasant Side Effect From Med</nciodm:CDISCSynonym>
                    <nciodm:CDISCDefinition>St. George's Respiratory Questionnaire Past 3 Months Version - These are questions about your respiratory treatment: I have unpleasant side effects from my medication.</nciodm:CDISCDefinition>
                    <nciodm:PreferredTerm>SGRQ Past 3 Months Version - Unpleasant Side Effects From Medication</nciodm:PreferredTerm>
                </EnumeratedItem>
                <EnumeratedItem CodedValue="SGRQ0136" nciodm:ExtCodeID="C112662">
                    <nciodm:CDISCSynonym>SGRQ01-Treatment Interferes With Life</nciodm:CDISCSynonym>
                    <nciodm:CDISCDefinition>St. George's Respiratory Questionnaire Past 3 Months Version - These are questions about your respiratory treatment: My treatment interferes with my life a lot.</nciodm:CDISCDefinition>
                    <nciodm:PreferredTerm>SGRQ Past 3 Months Version - Treatment Interferes With My Life</nciodm:PreferredTerm>
                </EnumeratedItem>
                <EnumeratedItem CodedValue="SGRQ0137" nciodm:ExtCodeID="C112663">
                    <nciodm:CDISCSynonym>SGRQ01-Take a Long Time to Get Washed</nciodm:CDISCSynonym>
                    <nciodm:CDISCDefinition>St. George's Respiratory Questionnaire Past 3 Months Version - These are questions about how your activities might be affected by your respiratory problems: I take a long time to get washed or dressed.</nciodm:CDISCDefinition>
                    <nciodm:PreferredTerm>SGRQ Past 3 Months Version - Take Long Time to Get Washed or Dressed</nciodm:PreferredTerm>
                </EnumeratedItem>
                <EnumeratedItem CodedValue="SGRQ0138" nciodm:ExtCodeID="C112664">
                    <nciodm:CDISCSynonym>SGRQ01-I Cannot Take a Bath or Shower</nciodm:CDISCSynonym>
                    <nciodm:CDISCDefinition>St. George's Respiratory Questionnaire Past 3 Months Version - These are questions about how your activities might be affected by your respiratory problems: I cannot take a bath or shower, or I take a long time to do it.</nciodm:CDISCDefinition>
                    <nciodm:PreferredTerm>SGRQ Past 3 Months Version - Cannot Take a Bath or Shower</nciodm:PreferredTerm>
                </EnumeratedItem>
                <EnumeratedItem CodedValue="SGRQ0139" nciodm:ExtCodeID="C112665">
                    <nciodm:CDISCSynonym>SGRQ01-I Walk Slower Than Other People</nciodm:CDISCSynonym>
                    <nciodm:CDISCDefinition>St. George's Respiratory Questionnaire Past 3 Months Version - These are questions about how your activities might be affected by your respiratory problems: I walk slower than other people my age, or I stop to rest.</nciodm:CDISCDefinition>
                    <nciodm:PreferredTerm>SGRQ Past 3 Months Version - Walk Slower Than Other People My Age</nciodm:PreferredTerm>
                </EnumeratedItem>
                <EnumeratedItem CodedValue="SGRQ0140" nciodm:ExtCodeID="C112666">
                    <nciodm:CDISCSynonym>SGRQ01-Jobs Take a Long Time</nciodm:CDISCSynonym>
                    <nciodm:CDISCDefinition>St. George's Respiratory Questionnaire Past 3 Months Version - These are questions about how your activities might be affected by your respiratory problems: Jobs such as household chores take a long time, or I have to stop to rest.</nciodm:CDISCDefinition>
                    <nciodm:PreferredTerm>SGRQ Past 3 Months Version - Jobs Take Long Time or I Have to Stop</nciodm:PreferredTerm>
                </EnumeratedItem>
                <EnumeratedItem CodedValue="SGRQ0141" nciodm:ExtCodeID="C112667">
                    <nciodm:CDISCSynonym>SGRQ01-Walk Up Flight of Stairs Slowly</nciodm:CDISCSynonym>
                    <nciodm:CDISCDefinition>St. George's Respiratory Questionnaire Past 3 Months Version - These are questions about how your activities might be affected by your respiratory problems: If I walk up one flight of stairs, I have to go slowly or stop.</nciodm:CDISCDefinition>
                    <nciodm:PreferredTerm>SGRQ Past 3 Months Version - If Walk Up One Flight of Stairs I Have to Go Slow</nciodm:PreferredTerm>
                </EnumeratedItem>
                <EnumeratedItem CodedValue="SGRQ0142" nciodm:ExtCodeID="C112668">
                    <nciodm:CDISCSynonym>SGRQ01-If I Hurry, I Have to Stop</nciodm:CDISCSynonym>
                    <nciodm:CDISCDefinition>St. George's Respiratory Questionnaire Past 3 Months Version - These are questions about how your activities might be affected by your respiratory problems: If I hurry or walk fast, I have to stop or slow down.</nciodm:CDISCDefinition>
                    <nciodm:PreferredTerm>SGRQ Past 3 Months Version - If Walk Fast I Have to Stop or Slow Down</nciodm:PreferredTerm>
                </EnumeratedItem>
                <EnumeratedItem CodedValue="SGRQ0143" nciodm:ExtCodeID="C112669">
                    <nciodm:CDISCSynonym>SGRQ01-Difficult to Walk Up Hills</nciodm:CDISCSynonym>
                    <nciodm:CDISCDefinition>St. George's Respiratory Questionnaire Past 3 Months Version - These are questions about how your activities might be affected by your respiratory problems: My breathing makes it difficult to do things such as walk up hills, carry things up stairs, light gardening such as weeding, dance, bowl or play golf.</nciodm:CDISCDefinition>
                    <nciodm:PreferredTerm>SGRQ Past 3 Months Version - Breathing Makes Difficult to Walk Up Hills</nciodm:PreferredTerm>
                </EnumeratedItem>
                <EnumeratedItem CodedValue="SGRQ0144" nciodm:ExtCodeID="C112670">
                    <nciodm:CDISCSynonym>SGRQ01-Difficult to Carry Heavy Loads</nciodm:CDISCSynonym>
                    <nciodm:CDISCDefinition>St. George's Respiratory Questionnaire Past 3 Months Version - These are questions about how your activities might be affected by your respiratory problems: My breathing makes it difficult to do things such as carry heavy loads, dig in the garden or shovel snow, jog or walk briskly (5 miles per hour), play tennis or swim.</nciodm:CDISCDefinition>
                    <nciodm:PreferredTerm>SGRQ Past 3 Months Version - Breathing Makes Difficult to Carry Heavy Loads</nciodm:PreferredTerm>
                </EnumeratedItem>
                <EnumeratedItem CodedValue="SGRQ0145" nciodm:ExtCodeID="C112671">
                    <nciodm:CDISCSynonym>SGRQ01-Difficult to Do Very Heavy Work</nciodm:CDISCSynonym>
                    <nciodm:CDISCDefinition>St. George's Respiratory Questionnaire Past 3 Months Version - These are questions about how your activities might be affected by your respiratory problems: My breathing makes it difficult to do things such as very heavy manual work, ride a bike, run, swim fast, or play competitive sports.</nciodm:CDISCDefinition>
                    <nciodm:PreferredTerm>SGRQ Past 3 Months Version - Breathing Makes Difficult to Do Heavy Manual Work</nciodm:PreferredTerm>
                </EnumeratedItem>
                <EnumeratedItem CodedValue="SGRQ0146" nciodm:ExtCodeID="C112672">
                    <nciodm:CDISCSynonym>SGRQ01-I Cannot Play Sports</nciodm:CDISCSynonym>
                    <nciodm:CDISCDefinition>St. George's Respiratory Questionnaire Past 3 Months Version - We would like to know how your respiratory problems usually affect your daily life: I cannot play sports or do other physical activities.</nciodm:CDISCDefinition>
                    <nciodm:PreferredTerm>SGRQ Past 3 Months Version - Cannot Play Sports or Do Physical Activities</nciodm:PreferredTerm>
                </EnumeratedItem>
                <EnumeratedItem CodedValue="SGRQ0147" nciodm:ExtCodeID="C112673">
                    <nciodm:CDISCSynonym>SGRQ01-Cannot Go Out for Entertainment</nciodm:CDISCSynonym>
                    <nciodm:CDISCDefinition>St. George's Respiratory Questionnaire Past 3 Months Version - We would like to know how your respiratory problems usually affect your daily life: I cannot go out for entertainment or recreation.</nciodm:CDISCDefinition>
                    <nciodm:PreferredTerm>SGRQ Past 3 Months Version - Cannot Go Out for Entertainment</nciodm:PreferredTerm>
                </EnumeratedItem>
                <EnumeratedItem CodedValue="SGRQ0148" nciodm:ExtCodeID="C112674">
                    <nciodm:CDISCSynonym>SGRQ01-Cannot Go Out to Do Shopping</nciodm:CDISCSynonym>
                    <nciodm:CDISCDefinition>St. George's Respiratory Questionnaire Past 3 Months Version - We would like to know how your respiratory problems usually affect your daily life: I cannot go out of the house to do the shopping.</nciodm:CDISCDefinition>
                    <nciodm:PreferredTerm>SGRQ Past 3 Months Version - Cannot Go Out to Do Shopping</nciodm:PreferredTerm>
                </EnumeratedItem>
                <EnumeratedItem CodedValue="SGRQ0149" nciodm:ExtCodeID="C112675">
                    <nciodm:CDISCSynonym>SGRQ01-I Cannot Do Household Chores</nciodm:CDISCSynonym>
                    <nciodm:CDISCDefinition>St. George's Respiratory Questionnaire Past 3 Months Version - We would like to know how your respiratory problems usually affect your daily life: I cannot do household chores.</nciodm:CDISCDefinition>
                    <nciodm:PreferredTerm>SGRQ Past 3 Months Version - Cannot Do Household Chores</nciodm:PreferredTerm>
                </EnumeratedItem>
                <EnumeratedItem CodedValue="SGRQ0150" nciodm:ExtCodeID="C112676">
                    <nciodm:CDISCSynonym>SGRQ01-I Cannot Move Far From My Bed</nciodm:CDISCSynonym>
                    <nciodm:CDISCDefinition>St. George's Respiratory Questionnaire Past 3 Months Version - We would like to know how your respiratory problems usually affect your daily life: I cannot move far from my bed or chair.</nciodm:CDISCDefinition>
                    <nciodm:PreferredTerm>SGRQ Past 3 Months Version - Cannot Move Far From Bed or Chair</nciodm:PreferredTerm>
                </EnumeratedItem>
                <EnumeratedItem CodedValue="SGRQ0151" nciodm:ExtCodeID="C112677">
                    <nciodm:CDISCSynonym>SGRQ01-How Resp Problems Affect You</nciodm:CDISCSynonym>
                    <nciodm:CDISCDefinition>St. George's Respiratory Questionnaire Past 3 Months Version - Best describe how your respiratory problems affect you.</nciodm:CDISCDefinition>
                    <nciodm:PreferredTerm>SGRQ Past 3 Months Version - How Respiratory Problems Affect You</nciodm:PreferredTerm>
                </EnumeratedItem>
                <nciodm:CDISCSubmissionValue>SGRQ01TC</nciodm:CDISCSubmissionValue>
                <nciodm:CDISCSynonym>St. George's Respiratory Questionnaire Past 3 Months Version Questionnaire Test Code</nciodm:CDISCSynonym>
                <nciodm:PreferredTerm>CDISC Questionnaire SGRQ Past 3 Months Version Test Code Terminology</nciodm:PreferredTerm>
            </CodeList>
            
