<CodeList xmlns="http://www.cdisc.org/ns/odm/v1.3" xmlns:nciodm="http://ncicb.nci.nih.gov/xml/odm/EVS/CDISC" xmlns:xs="http://www.w3.org/2001/XMLSchema-instance" OID="CL.C130243.HAMD4TC" Name="Hamilton Depression Rating Scale - 6 Clinician Version Clinical Classification Test Code" DataType="text" nciodm:ExtCodeID="C130243" nciodm:CodeListExtensible="No">
                <Description>
                    <TranslatedText xml:lang="en">Hamilton Depression Rating Scale - 6 Clinician Version test code.</TranslatedText>
                </Description>
                <EnumeratedItem CodedValue="HAMD401" nciodm:ExtCodeID="C130328">
                    <nciodm:CDISCSynonym>HAMD4-Depressed Mood</nciodm:CDISCSynonym>
                    <nciodm:CDISCDefinition>The Hamilton Depression Rating Scale 6 - Clinician Version - Depressed mood.</nciodm:CDISCDefinition>
                    <nciodm:PreferredTerm>HAM-D6 - Clinician Version - Depressed Mood</nciodm:PreferredTerm>
                </EnumeratedItem>
                <EnumeratedItem CodedValue="HAMD402" nciodm:ExtCodeID="C130329">
                    <nciodm:CDISCSynonym>HAMD4-Low Self-esteem and Guilt</nciodm:CDISCSynonym>
                    <nciodm:CDISCDefinition>The Hamilton Depression Rating Scale 6 - Clinician Version - Low self-esteem and guilt.</nciodm:CDISCDefinition>
                    <nciodm:PreferredTerm>HAM-D6 - Clinician Version - Low Self-esteem and Guilt</nciodm:PreferredTerm>
                </EnumeratedItem>
                <EnumeratedItem CodedValue="HAMD403" nciodm:ExtCodeID="C130330">
                    <nciodm:CDISCSynonym>HAMD4-Social Life Activities/Interests</nciodm:CDISCSynonym>
                    <nciodm:CDISCDefinition>The Hamilton Depression Rating Scale 6 - Clinician Version - Social life activities and interests.</nciodm:CDISCDefinition>
                    <nciodm:PreferredTerm>HAM-D6 - Clinician Version - Social Life Activities or Interests</nciodm:PreferredTerm>
                </EnumeratedItem>
                <EnumeratedItem CodedValue="HAMD404" nciodm:ExtCodeID="C130331">
                    <nciodm:CDISCSynonym>HAMD4-Psychomotor Retardation, General</nciodm:CDISCSynonym>
                    <nciodm:CDISCDefinition>The Hamilton Depression Rating Scale 6 - Clinician Version - Psychomotor retardation, general.</nciodm:CDISCDefinition>
                    <nciodm:PreferredTerm>HAM-D6 - Clinician Version - Psychomotor Retardation, General</nciodm:PreferredTerm>
                </EnumeratedItem>
                <EnumeratedItem CodedValue="HAMD405" nciodm:ExtCodeID="C130332">
                    <nciodm:CDISCSynonym>HAMD4-Psychic Anxiety</nciodm:CDISCSynonym>
                    <nciodm:CDISCDefinition>The Hamilton Depression Rating Scale 6 - Clinician Version - Psychic anxiety.</nciodm:CDISCDefinition>
                    <nciodm:PreferredTerm>HAM-D6 - Clinician Version - Psychic Anxiety</nciodm:PreferredTerm>
                </EnumeratedItem>
                <EnumeratedItem CodedValue="HAMD406" nciodm:ExtCodeID="C130333">
                    <nciodm:CDISCSynonym>HAMD4-Tiredness and Pains</nciodm:CDISCSynonym>
                    <nciodm:CDISCDefinition>The Hamilton Depression Rating Scale 6 - Clinician Version - Tiredness and pains.</nciodm:CDISCDefinition>
                    <nciodm:PreferredTerm>HAM-D6 - Clinician Version - Tiredness and Pains</nciodm:PreferredTerm>
                </EnumeratedItem>
                <EnumeratedItem CodedValue="HAMD407" nciodm:ExtCodeID="C130334">
                    <nciodm:CDISCSynonym>HAMD4-Total Score</nciodm:CDISCSynonym>
                    <nciodm:CDISCDefinition>The Hamilton Depression Rating Scale 6 - Clinician Version - Total score.</nciodm:CDISCDefinition>
                    <nciodm:PreferredTerm>HAM-D6 - Clinician Version - Total Score</nciodm:PreferredTerm>
                </EnumeratedItem>
                <nciodm:CDISCSubmissionValue>HAMD4TC</nciodm:CDISCSubmissionValue>
                <nciodm:CDISCSynonym>Hamilton Depression Rating Scale - 6 Clinician Version Clinical Classification Test Code</nciodm:CDISCSynonym>
                <nciodm:PreferredTerm>CDISC Clinical Classification HAM-D6 Clinician Version Test Code Terminology</nciodm:PreferredTerm>
            </CodeList>
            
