<CodeList xmlns="http://www.cdisc.org/ns/odm/v1.3" xmlns:nciodm="http://ncicb.nci.nih.gov/xml/odm/EVS/CDISC" xmlns:xs="http://www.w3.org/2001/XMLSchema-instance" OID="CL.C129941.URNSTS" Name="Urinary System Test Name" DataType="text" nciodm:ExtCodeID="C129941" nciodm:CodeListExtensible="Yes">
                <Description>
                    <TranslatedText xml:lang="en">A terminology codelist to describe the test name for examinations of the urinary system.</TranslatedText>
                </Description>
                <EnumeratedItem CodedValue="Color" nciodm:ExtCodeID="C64546">
                    <nciodm:CDISCSynonym>Color</nciodm:CDISCSynonym>
                    <nciodm:CDISCDefinition>A measurement of the color of a biological specimen.</nciodm:CDISCDefinition>
                    <nciodm:PreferredTerm>Color Assessment</nciodm:PreferredTerm>
                </EnumeratedItem>
                <EnumeratedItem CodedValue="Graft Status" nciodm:ExtCodeID="C135522">
                    <nciodm:CDISCSynonym>Graft Status</nciodm:CDISCSynonym>
                    <nciodm:CDISCDefinition>The condition of the donated organ or tissue. (NCI)</nciodm:CDISCDefinition>
                    <nciodm:PreferredTerm>Graft Status</nciodm:PreferredTerm>
                </EnumeratedItem>
                <EnumeratedItem CodedValue="Length" nciodm:ExtCodeID="C25334">
                    <nciodm:CDISCSynonym>Length</nciodm:CDISCSynonym>
                    <nciodm:CDISCDefinition>The linear extent in space from one end of something to the other end, or the extent of something from beginning to end. (NCI)</nciodm:CDISCDefinition>
                    <nciodm:PreferredTerm>Length</nciodm:PreferredTerm>
                </EnumeratedItem>
                <EnumeratedItem CodedValue="Number of Renal Arteries" nciodm:ExtCodeID="C130195">
                    <nciodm:CDISCSynonym>Number of Renal Arteries</nciodm:CDISCSynonym>
                    <nciodm:CDISCDefinition>A measurement of the total number of renal arteries.</nciodm:CDISCDefinition>
                    <nciodm:PreferredTerm>Number of Renal Arteries</nciodm:PreferredTerm>
                </EnumeratedItem>
                <EnumeratedItem CodedValue="Number of Renal Veins" nciodm:ExtCodeID="C130196">
                    <nciodm:CDISCSynonym>Number of Renal Veins</nciodm:CDISCSynonym>
                    <nciodm:CDISCDefinition>A measurement of the total number of renal veins.</nciodm:CDISCDefinition>
                    <nciodm:PreferredTerm>Number of Renal Veins</nciodm:PreferredTerm>
                </EnumeratedItem>
                <nciodm:CDISCSubmissionValue>URNSTS</nciodm:CDISCSubmissionValue>
                <nciodm:CDISCSynonym>Urinary System Test Name</nciodm:CDISCSynonym>
                <nciodm:PreferredTerm>CDISC SDTM Urinary System Test Name Terminology</nciodm:PreferredTerm>
            </CodeList>
            
