<CodeList xmlns="http://www.cdisc.org/ns/odm/v1.3" xmlns:nciodm="http://ncicb.nci.nih.gov/xml/odm/EVS/CDISC" xmlns:xs="http://www.w3.org/2001/XMLSchema-instance" OID="CL.C103484.SIQR01TN" Name="Symptom Impact Questionnaire Questionnaire Test Name" DataType="text" nciodm:ExtCodeID="C103484" nciodm:CodeListExtensible="No">
                <Description>
                    <TranslatedText xml:lang="en">Symptom Impact Questionnaire test name.</TranslatedText>
                </Description>
                <EnumeratedItem CodedValue="SIQR01-Anxiety" nciodm:ExtCodeID="C103747">
                    <nciodm:CDISCSynonym>SIQR01-Anxiety</nciodm:CDISCSynonym>
                    <nciodm:CDISCDefinition>Symptom Impact Questionnaire - Please rate your level of anxiety.</nciodm:CDISCDefinition>
                    <nciodm:PreferredTerm>SIQR - Anxiety</nciodm:PreferredTerm>
                </EnumeratedItem>
                <EnumeratedItem CodedValue="SIQR01-Balance Problems" nciodm:ExtCodeID="C103749">
                    <nciodm:CDISCSynonym>SIQR01-Balance Problems</nciodm:CDISCSynonym>
                    <nciodm:CDISCDefinition>Symptom Impact Questionnaire - Please rate your level of balance problems.</nciodm:CDISCDefinition>
                    <nciodm:PreferredTerm>SIQR - Balance Problems</nciodm:PreferredTerm>
                </EnumeratedItem>
                <EnumeratedItem CodedValue="SIQR01-Brush or Comb Your Hair" nciodm:ExtCodeID="C103730">
                    <nciodm:CDISCSynonym>SIQR01-Brush or Comb Your Hair</nciodm:CDISCSynonym>
                    <nciodm:CDISCDefinition>Symptom Impact Questionnaire - Brush or comb your hair.</nciodm:CDISCDefinition>
                    <nciodm:PreferredTerm>SIQR - Brush or Comb Your Hair</nciodm:PreferredTerm>
                </EnumeratedItem>
                <EnumeratedItem CodedValue="SIQR01-Change Bed Sheets" nciodm:ExtCodeID="C103736">
                    <nciodm:CDISCSynonym>SIQR01-Change Bed Sheets</nciodm:CDISCSynonym>
                    <nciodm:CDISCDefinition>Symptom Impact Questionnaire - Change bed sheets.</nciodm:CDISCDefinition>
                    <nciodm:PreferredTerm>SIQR - Change Bed Sheets</nciodm:PreferredTerm>
                </EnumeratedItem>
                <EnumeratedItem CodedValue="SIQR01-Climb One Flight of Stairs" nciodm:ExtCodeID="C103735">
                    <nciodm:CDISCSynonym>SIQR01-Climb One Flight of Stairs</nciodm:CDISCSynonym>
                    <nciodm:CDISCDefinition>Symptom Impact Questionnaire - Climb one flight of stairs.</nciodm:CDISCDefinition>
                    <nciodm:PreferredTerm>SIQR - Climb One Flight of Stairs</nciodm:PreferredTerm>
                </EnumeratedItem>
                <EnumeratedItem CodedValue="SIQR01-Depression" nciodm:ExtCodeID="C103745">
                    <nciodm:CDISCSynonym>SIQR01-Depression</nciodm:CDISCSynonym>
                    <nciodm:CDISCDefinition>Symptom Impact Questionnaire - Please rate your level of depression.</nciodm:CDISCDefinition>
                    <nciodm:PreferredTerm>SIQR - Depression</nciodm:PreferredTerm>
                </EnumeratedItem>
                <EnumeratedItem CodedValue="SIQR01-Energy" nciodm:ExtCodeID="C103742">
                    <nciodm:CDISCSynonym>SIQR01-Energy</nciodm:CDISCSynonym>
                    <nciodm:CDISCDefinition>Symptom Impact Questionnaire - Please rate your level of energy.</nciodm:CDISCDefinition>
                    <nciodm:PreferredTerm>SIQR - Energy</nciodm:PreferredTerm>
                </EnumeratedItem>
                <EnumeratedItem CodedValue="SIQR01-Go Shopping for Groceries" nciodm:ExtCodeID="C103738">
                    <nciodm:CDISCSynonym>SIQR01-Go Shopping for Groceries</nciodm:CDISCSynonym>
                    <nciodm:CDISCDefinition>Symptom Impact Questionnaire - Go shopping for groceries.</nciodm:CDISCDefinition>
                    <nciodm:PreferredTerm>SIQR - Go Shopping for Groceries</nciodm:PreferredTerm>
                </EnumeratedItem>
                <EnumeratedItem CodedValue="SIQR01-Lift/Carry Bag Full of Groceries" nciodm:ExtCodeID="C103734">
                    <nciodm:CDISCSynonym>SIQR01-Lift/Carry Bag Full of Groceries</nciodm:CDISCSynonym>
                    <nciodm:CDISCDefinition>Symptom Impact Questionnaire - Lift and carry a bag full of groceries.</nciodm:CDISCDefinition>
                    <nciodm:PreferredTerm>SIQR - Lift and Carry a Bag Full of Groceries</nciodm:PreferredTerm>
                </EnumeratedItem>
                <EnumeratedItem CodedValue="SIQR01-Memory Problems" nciodm:ExtCodeID="C103746">
                    <nciodm:CDISCSynonym>SIQR01-Memory Problems</nciodm:CDISCSynonym>
                    <nciodm:CDISCDefinition>Symptom Impact Questionnaire - Please rate your level of memory problems.</nciodm:CDISCDefinition>
                    <nciodm:PreferredTerm>SIQR - Memory Problems</nciodm:PreferredTerm>
                </EnumeratedItem>
                <EnumeratedItem CodedValue="SIQR01-Overwhelmed by Medical Problems" nciodm:ExtCodeID="C103740">
                    <nciodm:CDISCSynonym>SIQR01-Overwhelmed by Medical Problems</nciodm:CDISCSynonym>
                    <nciodm:CDISCDefinition>Symptom Impact Questionnaire - I was completely overwhelmed by my medical problems.</nciodm:CDISCDefinition>
                    <nciodm:PreferredTerm>SIQR - I was Completely Overwhelmed by My Medical Problem</nciodm:PreferredTerm>
                </EnumeratedItem>
                <EnumeratedItem CodedValue="SIQR01-Pain" nciodm:ExtCodeID="C103741">
                    <nciodm:CDISCSynonym>SIQR01-Pain</nciodm:CDISCSynonym>
                    <nciodm:CDISCDefinition>Symptom Impact Questionnaire - Please rate your level of pain.</nciodm:CDISCDefinition>
                    <nciodm:PreferredTerm>SIQR - Pain</nciodm:PreferredTerm>
                </EnumeratedItem>
                <EnumeratedItem CodedValue="SIQR01-Prepare a Homemade Meal" nciodm:ExtCodeID="C103732">
                    <nciodm:CDISCSynonym>SIQR01-Prepare a Homemade Meal</nciodm:CDISCSynonym>
                    <nciodm:CDISCDefinition>Symptom Impact Questionnaire - Prepare a homemade meal.</nciodm:CDISCDefinition>
                    <nciodm:PreferredTerm>SIQR - Prepare a Homemade Meal</nciodm:PreferredTerm>
                </EnumeratedItem>
                <EnumeratedItem CodedValue="SIQR01-Prevent from Accomplishing Goals" nciodm:ExtCodeID="C103739">
                    <nciodm:CDISCSynonym>SIQR01-Prevent from Accomplishing Goals</nciodm:CDISCSynonym>
                    <nciodm:CDISCDefinition>Symptom Impact Questionnaire - My medical problems prevented me from accomplishing goals for week.</nciodm:CDISCDefinition>
                    <nciodm:PreferredTerm>SIQR - My Medical Problem Prevented Me from Accomplishing Goals for the Week</nciodm:PreferredTerm>
                </EnumeratedItem>
                <EnumeratedItem CodedValue="SIQR01-Sensitivity Noise/Light/Odor/Cold" nciodm:ExtCodeID="C103750">
                    <nciodm:CDISCSynonym>SIQR01-Sensitivity Noise/Light/Odor/Cold</nciodm:CDISCSynonym>
                    <nciodm:CDISCDefinition>Symptom Impact Questionnaire - Please rate your level of sensitivity to loud noises, bright lights, odors and cold.</nciodm:CDISCDefinition>
                    <nciodm:PreferredTerm>SIQR - Sensitivity to Loud Noises, Bright Lights, Odors and Cold</nciodm:PreferredTerm>
                </EnumeratedItem>
                <EnumeratedItem CodedValue="SIQR01-Sit in a Chair for 45 Minutes" nciodm:ExtCodeID="C103737">
                    <nciodm:CDISCSynonym>SIQR01-Sit in a Chair for 45 Minutes</nciodm:CDISCSynonym>
                    <nciodm:CDISCDefinition>Symptom Impact Questionnaire - Sit in a chair for 45 minutes.</nciodm:CDISCDefinition>
                    <nciodm:PreferredTerm>SIQR - Sit in a Chair for 45 Minutes</nciodm:PreferredTerm>
                </EnumeratedItem>
                <EnumeratedItem CodedValue="SIQR01-Stiffness" nciodm:ExtCodeID="C103743">
                    <nciodm:CDISCSynonym>SIQR01-Stiffness</nciodm:CDISCSynonym>
                    <nciodm:CDISCDefinition>Symptom Impact Questionnaire - Please rate your level of stiffness.</nciodm:CDISCDefinition>
                    <nciodm:PreferredTerm>SIQR - Stiffness</nciodm:PreferredTerm>
                </EnumeratedItem>
                <EnumeratedItem CodedValue="SIQR01-Tenderness to Touch" nciodm:ExtCodeID="C103748">
                    <nciodm:CDISCSynonym>SIQR01-Tenderness to Touch</nciodm:CDISCSynonym>
                    <nciodm:CDISCDefinition>Symptom Impact Questionnaire - Please rate your level of tenderness to touch.</nciodm:CDISCDefinition>
                    <nciodm:PreferredTerm>SIQR - Tenderness to Touch</nciodm:PreferredTerm>
                </EnumeratedItem>
                <EnumeratedItem CodedValue="SIQR01-Vacuum Scrub or Sweep Floors" nciodm:ExtCodeID="C103733">
                    <nciodm:CDISCSynonym>SIQR01-Vacuum Scrub or Sweep Floors</nciodm:CDISCSynonym>
                    <nciodm:CDISCDefinition>Symptom Impact Questionnaire - Vacuum, scrub or sweep floors.</nciodm:CDISCDefinition>
                    <nciodm:PreferredTerm>SIQR - Vacuum Scrub or Sweep Floors</nciodm:PreferredTerm>
                </EnumeratedItem>
                <EnumeratedItem CodedValue="SIQR01-Walk Continuously for 20 Minutes" nciodm:ExtCodeID="C103731">
                    <nciodm:CDISCSynonym>SIQR01-Walk Continuously for 20 Minutes</nciodm:CDISCSynonym>
                    <nciodm:CDISCDefinition>Symptom Impact Questionnaire - Walk continuously for 20 minutes.</nciodm:CDISCDefinition>
                    <nciodm:PreferredTerm>SIQR - Walk Continuously for 20 Minutes</nciodm:PreferredTerm>
                </EnumeratedItem>
                <EnumeratedItem CodedValue="SIQR01-Your Sleep" nciodm:ExtCodeID="C103744">
                    <nciodm:CDISCSynonym>SIQR01-Your Sleep</nciodm:CDISCSynonym>
                    <nciodm:CDISCDefinition>Symptom Impact Questionnaire - Please rate the quality of your sleep.</nciodm:CDISCDefinition>
                    <nciodm:PreferredTerm>SIQR - Your Sleep</nciodm:PreferredTerm>
                </EnumeratedItem>
                <nciodm:CDISCSubmissionValue>SIQR01TN</nciodm:CDISCSubmissionValue>
                <nciodm:CDISCSynonym>Symptom Impact Questionnaire Questionnaire Test Name</nciodm:CDISCSynonym>
                <nciodm:PreferredTerm>CDISC Questionnaire SIQR Test Name Terminology</nciodm:PreferredTerm>
            </CodeList>
            
