<CodeList xmlns="http://www.cdisc.org/ns/odm/v1.3" xmlns:nciodm="http://ncicb.nci.nih.gov/xml/odm/EVS/CDISC" xmlns:xs="http://www.w3.org/2001/XMLSchema-instance" OID="CL.C106658.CSS05TN" Name="Columbia-Suicide Severity Rating Scale Already Enrolled Subjects Questionnaire Test Name" DataType="text" nciodm:ExtCodeID="C106658" nciodm:CodeListExtensible="No">
                <Description>
                    <TranslatedText xml:lang="en">Columbia-Suicide Severity Rating Scale Already Enrolled Subject test name.</TranslatedText>
                </Description>
                <EnumeratedItem CodedValue="CSS05-Aborted Attempt, Describe" nciodm:ExtCodeID="C107072">
                    <nciodm:CDISCSynonym>CSS05-Aborted Attempt, Describe</nciodm:CDISCSynonym>
                    <nciodm:CDISCDefinition>Columbia-Suicide Severity Rating Scale Already Enrolled Subjects - Description of aborted attempt.</nciodm:CDISCDefinition>
                    <nciodm:PreferredTerm>C-SSRS Already Enrolled Subjects - Description of Aborted Suicide Attempt</nciodm:PreferredTerm>
                </EnumeratedItem>
                <EnumeratedItem CodedValue="CSS05-Aborted Attempt-Prior" nciodm:ExtCodeID="C107068">
                    <nciodm:CDISCSynonym>CSS05-Aborted Attempt-Prior</nciodm:CDISCSynonym>
                    <nciodm:CDISCDefinition>Columbia-Suicide Severity Rating Scale Already Enrolled Subjects - Has there been a time when you started to do something to try to end your life but you stopped yourself before you actually did anything? (Prior to Study Entry).</nciodm:CDISCDefinition>
                    <nciodm:PreferredTerm>C-SSRS Already Enrolled Subjects - Aborted Suicide Attempt (Prior to Study Entry)</nciodm:PreferredTerm>
                </EnumeratedItem>
                <EnumeratedItem CodedValue="CSS05-Aborted Attempt-Since" nciodm:ExtCodeID="C107069">
                    <nciodm:CDISCSynonym>CSS05-Aborted Attempt-Since</nciodm:CDISCSynonym>
                    <nciodm:CDISCDefinition>Columbia-Suicide Severity Rating Scale Already Enrolled Subjects - Has there been a time when you started to do something to try to end your life but you stopped yourself before you actually did anything? (Since Study Start).</nciodm:CDISCDefinition>
                    <nciodm:PreferredTerm>C-SSRS Already Enrolled Subjects - Aborted Suicide Attempt (Since Study Start)</nciodm:PreferredTerm>
                </EnumeratedItem>
                <EnumeratedItem CodedValue="CSS05-Actual Attempt, Describe" nciodm:ExtCodeID="C107060">
                    <nciodm:CDISCSynonym>CSS05-Actual Attempt, Describe</nciodm:CDISCSynonym>
                    <nciodm:CDISCDefinition>Columbia-Suicide Severity Rating Scale Already Enrolled Subjects - Description of actual attempt.</nciodm:CDISCDefinition>
                    <nciodm:PreferredTerm>C-SSRS Already Enrolled Subjects - Description of Actual Suicide Attempt</nciodm:PreferredTerm>
                </EnumeratedItem>
                <EnumeratedItem CodedValue="CSS05-Actual Attempt-Prior" nciodm:ExtCodeID="C107056">
                    <nciodm:CDISCSynonym>CSS05-Actual Attempt-Prior</nciodm:CDISCSynonym>
                    <nciodm:CDISCDefinition>Columbia-Suicide Severity Rating Scale Already Enrolled Subjects - Have you made a suicide attempt? Have you done anything to harm yourself? Have you done anything dangerous where you could have died? (Prior to Study Entry).</nciodm:CDISCDefinition>
                    <nciodm:PreferredTerm>C-SSRS Already Enrolled Subjects - Actual Suicide Attempt (Prior to Study Entry)</nciodm:PreferredTerm>
                </EnumeratedItem>
                <EnumeratedItem CodedValue="CSS05-Actual Attempt-Since" nciodm:ExtCodeID="C107057">
                    <nciodm:CDISCSynonym>CSS05-Actual Attempt-Since</nciodm:CDISCSynonym>
                    <nciodm:CDISCDefinition>Columbia-Suicide Severity Rating Scale Already Enrolled Subjects - Have you made a suicide attempt? Have you done anything to harm yourself? Have you done anything dangerous where you could have died? (Since Study Start).</nciodm:CDISCDefinition>
                    <nciodm:PreferredTerm>C-SSRS Already Enrolled Subjects - Actual Suicide Attempt (Since Study Start)</nciodm:PreferredTerm>
                </EnumeratedItem>
                <EnumeratedItem CodedValue="CSS05-Completed Suicide-Prior" nciodm:ExtCodeID="C107078">
                    <nciodm:CDISCSynonym>CSS05-Completed Suicide-Prior</nciodm:CDISCSynonym>
                    <nciodm:CDISCDefinition>Columbia-Suicide Severity Rating Scale Already Enrolled Subjects - Completed suicide? (Prior to Study Entry).</nciodm:CDISCDefinition>
                    <nciodm:PreferredTerm>C-SSRS Already Enrolled Subjects - Completed Suicide (Prior to Study Entry)</nciodm:PreferredTerm>
                </EnumeratedItem>
                <EnumeratedItem CodedValue="CSS05-Completed Suicide-Since" nciodm:ExtCodeID="C107079">
                    <nciodm:CDISCSynonym>CSS05-Completed Suicide-Since</nciodm:CDISCSynonym>
                    <nciodm:CDISCDefinition>Columbia-Suicide Severity Rating Scale Already Enrolled Subjects - Completed suicide? (Since Study Start).</nciodm:CDISCDefinition>
                    <nciodm:PreferredTerm>C-SSRS Already Enrolled Subjects - Completed Suicide (Since Study Start)</nciodm:PreferredTerm>
                </EnumeratedItem>
                <EnumeratedItem CodedValue="CSS05-First Attempt Damage" nciodm:ExtCodeID="C107087">
                    <nciodm:CDISCSynonym>CSS05-First Attempt Damage</nciodm:CDISCSynonym>
                    <nciodm:CDISCDefinition>Columbia-Suicide Severity Rating Scale Already Enrolled Subjects - Initial/first attempt actual lethality/medical damage.</nciodm:CDISCDefinition>
                    <nciodm:PreferredTerm>C-SSRS Already Enrolled Subjects - First Suicide Attempt Actual Lethality/Medical Damage</nciodm:PreferredTerm>
                </EnumeratedItem>
                <EnumeratedItem CodedValue="CSS05-First Attempt Date" nciodm:ExtCodeID="C107086">
                    <nciodm:CDISCSynonym>CSS05-First Attempt Date</nciodm:CDISCSynonym>
                    <nciodm:CDISCDefinition>Columbia-Suicide Severity Rating Scale Already Enrolled Subjects - Initial/first attempt date.</nciodm:CDISCDefinition>
                    <nciodm:PreferredTerm>C-SSRS Already Enrolled Subjects - First Suicide Attempt Date</nciodm:PreferredTerm>
                </EnumeratedItem>
                <EnumeratedItem CodedValue="CSS05-First Attempt Potential" nciodm:ExtCodeID="C107088">
                    <nciodm:CDISCSynonym>CSS05-First Attempt Potential</nciodm:CDISCSynonym>
                    <nciodm:CDISCDefinition>Columbia-Suicide Severity Rating Scale Already Enrolled Subjects - Initial/first attempt potential lethality.</nciodm:CDISCDefinition>
                    <nciodm:PreferredTerm>C-SSRS Already Enrolled Subjects - First Suicide Attempt Potential Lethality</nciodm:PreferredTerm>
                </EnumeratedItem>
                <EnumeratedItem CodedValue="CSS05-Idea, Intent, No Plan, Describe" nciodm:ExtCodeID="C107038">
                    <nciodm:CDISCSynonym>CSS05-Idea, Intent, No Plan, Describe</nciodm:CDISCSynonym>
                    <nciodm:CDISCDefinition>Columbia-Suicide Severity Rating Scale Already Enrolled Subjects - Description of active suicidal ideation with some intent to act, without specific plan.</nciodm:CDISCDefinition>
                    <nciodm:PreferredTerm>C-SSRS Already Enrolled Subjects - Description of Active Suicidal Ideation With Some Intent to Act, Without Specific Plan</nciodm:PreferredTerm>
                </EnumeratedItem>
                <EnumeratedItem CodedValue="CSS05-Idea, Intent, No Plan-Prior" nciodm:ExtCodeID="C107036">
                    <nciodm:CDISCSynonym>CSS05-Idea, Intent, No Plan-Prior</nciodm:CDISCSynonym>
                    <nciodm:CDISCDefinition>Columbia-Suicide Severity Rating Scale Already Enrolled Subjects - Have you had these thoughts and had some intention of acting on them? (Prior to Study Entry).</nciodm:CDISCDefinition>
                    <nciodm:PreferredTerm>C-SSRS Already Enrolled Subjects - Active Suicidal Ideation With Some Intent to Act, Without Specific Plan (Prior to Study Entry)</nciodm:PreferredTerm>
                </EnumeratedItem>
                <EnumeratedItem CodedValue="CSS05-Idea, Intent, No Plan-Since" nciodm:ExtCodeID="C107037">
                    <nciodm:CDISCSynonym>CSS05-Idea, Intent, No Plan-Since</nciodm:CDISCSynonym>
                    <nciodm:CDISCDefinition>Columbia-Suicide Severity Rating Scale Already Enrolled Subjects - Have you had these thoughts and had some intention of acting on them? (Since Study Start).</nciodm:CDISCDefinition>
                    <nciodm:PreferredTerm>C-SSRS Already Enrolled Subjects - Active Suicidal Ideation With Some Intent to Act, Without Specific Plan (Since Study Start)</nciodm:PreferredTerm>
                </EnumeratedItem>
                <EnumeratedItem CodedValue="CSS05-Idea, No Intent, No Plan, Describe" nciodm:ExtCodeID="C107035">
                    <nciodm:CDISCSynonym>CSS05-Idea, No Intent, No Plan, Describe</nciodm:CDISCSynonym>
                    <nciodm:CDISCDefinition>Columbia-Suicide Severity Rating Scale Already Enrolled Subjects - Description of active suicidal ideation with any methods (not plan) without intent to act.</nciodm:CDISCDefinition>
                    <nciodm:PreferredTerm>C-SSRS Already Enrolled Subjects - Description of Active Suicidal Ideation With Any Methods (Not Plan) Without Intent to Act</nciodm:PreferredTerm>
                </EnumeratedItem>
                <EnumeratedItem CodedValue="CSS05-Idea, No Intent, No Plan-Prior" nciodm:ExtCodeID="C107033">
                    <nciodm:CDISCSynonym>CSS05-Idea, No Intent, No Plan-Prior</nciodm:CDISCSynonym>
                    <nciodm:CDISCDefinition>Columbia-Suicide Severity Rating Scale Already Enrolled Subjects - Have you been thinking about how you might do this? (Prior to Study Entry).</nciodm:CDISCDefinition>
                    <nciodm:PreferredTerm>C-SSRS Already Enrolled Subjects - Active Suicidal Ideation With Any Methods (Not Plan) Without Intent to Act (Prior to Study Entry)</nciodm:PreferredTerm>
                </EnumeratedItem>
                <EnumeratedItem CodedValue="CSS05-Idea, No Intent, No Plan-Since" nciodm:ExtCodeID="C107034">
                    <nciodm:CDISCSynonym>CSS05-Idea, No Intent, No Plan-Since</nciodm:CDISCSynonym>
                    <nciodm:CDISCDefinition>Columbia-Suicide Suicide Rating Scale Already Enrolled Subjects - Have you been thinking about how you might do this? (Since Study Start).</nciodm:CDISCDefinition>
                    <nciodm:PreferredTerm>C-SSRS Already Enrolled Subjects - Active Suicidal Ideation With Any Methods (Not Plan) Without Intent to Act (Since Study Start)</nciodm:PreferredTerm>
                </EnumeratedItem>
                <EnumeratedItem CodedValue="CSS05-Idea, Plan, Intent, Describe" nciodm:ExtCodeID="C107041">
                    <nciodm:CDISCSynonym>CSS05-Idea, Plan, Intent, Describe</nciodm:CDISCSynonym>
                    <nciodm:CDISCDefinition>Columbia-Suicide Severity Rating Scale Already Enrolled Subjects - Description of active suicidal ideation with specific plan and intent.</nciodm:CDISCDefinition>
                    <nciodm:PreferredTerm>C-SSRS Already Enrolled Subjects - Description of Active Suicidal Ideation With Specific Plan and Intent</nciodm:PreferredTerm>
                </EnumeratedItem>
                <EnumeratedItem CodedValue="CSS05-Idea, Plan, Intent-Prior" nciodm:ExtCodeID="C107039">
                    <nciodm:CDISCSynonym>CSS05-Idea, Plan, Intent-Prior</nciodm:CDISCSynonym>
                    <nciodm:CDISCDefinition>Columbia-Suicide Severity Rating Scale Already Enrolled Subjects - Have you started to work out or worked out the details of how to kill yourself? Do you intend to carry out this plan? (Prior to Study Entry).</nciodm:CDISCDefinition>
                    <nciodm:PreferredTerm>C-SSRS Already Enrolled Subjects - Active Suicidal Ideation With Specific Plan and Intent (Prior to Study Entry)</nciodm:PreferredTerm>
                </EnumeratedItem>
                <EnumeratedItem CodedValue="CSS05-Idea, Plan, Intent-Since" nciodm:ExtCodeID="C107040">
                    <nciodm:CDISCSynonym>CSS05-Idea, Plan, Intent-Since</nciodm:CDISCSynonym>
                    <nciodm:CDISCDefinition>Columbia-Suicide Severity Rating Scale Already Enrolled Subjects - Have you started to work out or worked out the details of how to kill yourself? Do you intend to carry out this plan? (Since Study Start).</nciodm:CDISCDefinition>
                    <nciodm:PreferredTerm>C-SSRS Already Enrolled Subjects - Active Suicidal Ideation With Specific Plan and Intent (Since Study Start)</nciodm:PreferredTerm>
                </EnumeratedItem>
                <EnumeratedItem CodedValue="CSS05-Interrupted Attempt, Describe" nciodm:ExtCodeID="C107067">
                    <nciodm:CDISCSynonym>CSS05-Interrupted Attempt, Describe</nciodm:CDISCSynonym>
                    <nciodm:CDISCDefinition>Columbia-Suicide Severity Rating Scale Already Enrolled Subjects - Description of interrupted attempt.</nciodm:CDISCDefinition>
                    <nciodm:PreferredTerm>C-SSRS Already Enrolled Subjects - Description of Interrupted Suicide Attempt</nciodm:PreferredTerm>
                </EnumeratedItem>
                <EnumeratedItem CodedValue="CSS05-Interrupted Attempt-Prior" nciodm:ExtCodeID="C107063">
                    <nciodm:CDISCSynonym>CSS05-Interrupted Attempt-Prior</nciodm:CDISCSynonym>
                    <nciodm:CDISCDefinition>Columbia-Suicide Severity Rating Scale Already Enrolled Subjects - Has there been a time when you started to do something to try to end your life but someone or something stopped you before you actually did anything? (Prior to Study Entry).</nciodm:CDISCDefinition>
                    <nciodm:PreferredTerm>C-SSRS Already Enrolled Subjects - Interrupted Suicide Attempt (Prior to Study Entry)</nciodm:PreferredTerm>
                </EnumeratedItem>
                <EnumeratedItem CodedValue="CSS05-Interrupted Attempt-Since" nciodm:ExtCodeID="C107064">
                    <nciodm:CDISCSynonym>CSS05-Interrupted Attempt-Since</nciodm:CDISCSynonym>
                    <nciodm:CDISCDefinition>Columbia-Suicide Severity Rating Scale Already Enrolled Subjects - Has there been a time when you started to do something to try to end your life but someone or something stopped you before you actually did anything? (Since Study Start).</nciodm:CDISCDefinition>
                    <nciodm:PreferredTerm>C-SSRS Already Enrolled Subjects - Interrupted Suicide Attempt (Since Study Start)</nciodm:PreferredTerm>
                </EnumeratedItem>
                <EnumeratedItem CodedValue="CSS05-Most Lethal Attempt Damage" nciodm:ExtCodeID="C107084">
                    <nciodm:CDISCSynonym>CSS05-Most Lethal Attempt Damage</nciodm:CDISCSynonym>
                    <nciodm:CDISCDefinition>Columbia-Suicide Severity Rating Scale Already Enrolled Subjects - Most lethal attempt actual lethality/medical damage.</nciodm:CDISCDefinition>
                    <nciodm:PreferredTerm>C-SSRS Already Enrolled Subjects - Most Lethal Suicide Attempt Actual Lethality/Medical Damage</nciodm:PreferredTerm>
                </EnumeratedItem>
                <EnumeratedItem CodedValue="CSS05-Most Lethal Attempt Date" nciodm:ExtCodeID="C107083">
                    <nciodm:CDISCSynonym>CSS05-Most Lethal Attempt Date</nciodm:CDISCSynonym>
                    <nciodm:CDISCDefinition>Columbia-Suicide Severity Rating Scale Already Enrolled Subjects - Most lethal attempt date.</nciodm:CDISCDefinition>
                    <nciodm:PreferredTerm>C-SSRS Already Enrolled Subjects - Most Lethal Suicide Attempt Date</nciodm:PreferredTerm>
                </EnumeratedItem>
                <EnumeratedItem CodedValue="CSS05-Most Lethal Attempt Potential" nciodm:ExtCodeID="C107085">
                    <nciodm:CDISCSynonym>CSS05-Most Lethal Attempt Potential</nciodm:CDISCSynonym>
                    <nciodm:CDISCDefinition>Columbia-Suicide Severity Rating Scale Already Enrolled Subjects - Most lethal attempt potential lethality.</nciodm:CDISCDefinition>
                    <nciodm:PreferredTerm>C-SSRS Already Enrolled Subjects - Most Lethal Suicide Attempt Potential Lethality</nciodm:PreferredTerm>
                </EnumeratedItem>
                <EnumeratedItem CodedValue="CSS05-Most Recent Attempt Damage" nciodm:ExtCodeID="C107081">
                    <nciodm:CDISCSynonym>CSS05-Most Recent Attempt Damage</nciodm:CDISCSynonym>
                    <nciodm:CDISCDefinition>Columbia-Suicide Severity Rating Scale Already Enrolled Subjects - Most recent attempt actual lethality/medical damage.</nciodm:CDISCDefinition>
                    <nciodm:PreferredTerm>C-SSRS Already Enrolled Subjects - Most Recent Suicide Attempt Actual Lethality/Medical Damage</nciodm:PreferredTerm>
                </EnumeratedItem>
                <EnumeratedItem CodedValue="CSS05-Most Recent Attempt Date" nciodm:ExtCodeID="C107080">
                    <nciodm:CDISCSynonym>CSS05-Most Recent Attempt Date</nciodm:CDISCSynonym>
                    <nciodm:CDISCDefinition>Columbia-Suicide Severity Rating Scale Already Enrolled Subjects - Most recent attempt date.</nciodm:CDISCDefinition>
                    <nciodm:PreferredTerm>C-SSRS Already Enrolled Subjects - Most Recent Suicide Attempt Date</nciodm:PreferredTerm>
                </EnumeratedItem>
                <EnumeratedItem CodedValue="CSS05-Most Recent Attempt Potential" nciodm:ExtCodeID="C107082">
                    <nciodm:CDISCSynonym>CSS05-Most Recent Attempt Potential</nciodm:CDISCSynonym>
                    <nciodm:CDISCDefinition>Columbia-Suicide Severity Rating Scale Already Enrolled Subjects - Most recent attempt potential lethality.</nciodm:CDISCDefinition>
                    <nciodm:PreferredTerm>C-SSRS Already Enrolled Subjects - Most Recent Suicide Attempt Potential Lethality</nciodm:PreferredTerm>
                </EnumeratedItem>
                <EnumeratedItem CodedValue="CSS05-Most Severe Idea, Control-Prior" nciodm:ExtCodeID="C107050">
                    <nciodm:CDISCSynonym>CSS05-Most Severe Idea, Control-Prior</nciodm:CDISCSynonym>
                    <nciodm:CDISCDefinition>Columbia-Suicide Severity Rating Scale Already Enrolled Subjects - Could/can you stop thinking about killing yourself or wanting to die if you want to? (Prior to Study Entry).</nciodm:CDISCDefinition>
                    <nciodm:PreferredTerm>C-SSRS Already Enrolled Subjects - Controllability of Most Severe Ideation (Prior to Study Entry)</nciodm:PreferredTerm>
                </EnumeratedItem>
                <EnumeratedItem CodedValue="CSS05-Most Severe Idea, Control-Since" nciodm:ExtCodeID="C107051">
                    <nciodm:CDISCSynonym>CSS05-Most Severe Idea, Control-Since</nciodm:CDISCSynonym>
                    <nciodm:CDISCDefinition>Columbia-Suicide Severity Rating Scale Already Enrolled Subjects - Could/can you stop thinking about killing yourself or wanting to die if you want to? (Since Study Start).</nciodm:CDISCDefinition>
                    <nciodm:PreferredTerm>C-SSRS Already Enrolled Subjects - Controllability of Most Severe Ideation (Since Study Start)</nciodm:PreferredTerm>
                </EnumeratedItem>
                <EnumeratedItem CodedValue="CSS05-Most Severe Idea, Desc-Prior" nciodm:ExtCodeID="C107043">
                    <nciodm:CDISCSynonym>CSS05-Most Severe Idea, Desc-Prior</nciodm:CDISCSynonym>
                    <nciodm:CDISCDefinition>Columbia-Suicide Severity Rating Scale Already Enrolled Subjects - Description of most severe ideation. (Prior to Study Entry).</nciodm:CDISCDefinition>
                    <nciodm:PreferredTerm>C-SSRS Already Enrolled Subjects - Describe Most Severe Ideation (Prior to Study Entry)</nciodm:PreferredTerm>
                </EnumeratedItem>
                <EnumeratedItem CodedValue="CSS05-Most Severe Idea, Desc-Since" nciodm:ExtCodeID="C107045">
                    <nciodm:CDISCSynonym>CSS05-Most Severe Idea, Desc-Since</nciodm:CDISCSynonym>
                    <nciodm:CDISCDefinition>Columbia-Suicide Severity Rating Scale Already Enrolled Subjects - Description of most severe ideation. (Since Study Start).</nciodm:CDISCDefinition>
                    <nciodm:PreferredTerm>C-SSRS Already Enrolled Subjects - Describe Most Severe Ideation (Since Study Start)</nciodm:PreferredTerm>
                </EnumeratedItem>
                <EnumeratedItem CodedValue="CSS05-Most Severe Idea, Deterrents-Prior" nciodm:ExtCodeID="C107052">
                    <nciodm:CDISCSynonym>CSS05-Most Severe Idea, Deterrents-Prior</nciodm:CDISCSynonym>
                    <nciodm:CDISCDefinition>Columbia-Suicide Severity Rating Scale Already Enrolled Subjects - Are there things-anyone or anything (e.g., family, religion, pain of death) - that stopped you from wanting to die or acting on thoughts of committing suicide? (Prior to Study Entry).</nciodm:CDISCDefinition>
                    <nciodm:PreferredTerm>C-SSRS Already Enrolled Subjects - Deterrents to Most Severe Ideation (Prior to Study Entry)</nciodm:PreferredTerm>
                </EnumeratedItem>
                <EnumeratedItem CodedValue="CSS05-Most Severe Idea, Deterrents-Since" nciodm:ExtCodeID="C107053">
                    <nciodm:CDISCSynonym>CSS05-Most Severe Idea, Deterrents-Since</nciodm:CDISCSynonym>
                    <nciodm:CDISCDefinition>Columbia-Suicide Severity Rating Scale Already Enrolled Subjects - Are there things-anyone or anything (e.g., family, religion, pain of death) - that stopped you from wanting to die or acting on thoughts of committing suicide? (Since Study Start).</nciodm:CDISCDefinition>
                    <nciodm:PreferredTerm>C-SSRS Already Enrolled Subjects - Deterrents to Most Severe Ideation (Since Study Start)</nciodm:PreferredTerm>
                </EnumeratedItem>
                <EnumeratedItem CodedValue="CSS05-Most Severe Idea, Duration-Prior" nciodm:ExtCodeID="C107048">
                    <nciodm:CDISCSynonym>CSS05-Most Severe Idea, Duration-Prior</nciodm:CDISCSynonym>
                    <nciodm:CDISCDefinition>Columbia-Suicide Severity Rating Scale Already Enrolled Subjects - When you have the thoughts how long do they last? (Prior to Study Entry).</nciodm:CDISCDefinition>
                    <nciodm:PreferredTerm>C-SSRS Already Enrolled Subjects - Duration of Most Severe Ideation (Prior to Study Entry)</nciodm:PreferredTerm>
                </EnumeratedItem>
                <EnumeratedItem CodedValue="CSS05-Most Severe Idea, Duration-Since" nciodm:ExtCodeID="C107049">
                    <nciodm:CDISCSynonym>CSS05-Most Severe Idea, Duration-Since</nciodm:CDISCSynonym>
                    <nciodm:CDISCDefinition>Columbia-Suicide Severity Rating Scale Already Enrolled Subjects - When you have the thoughts how long do they last? (Since Study Start).</nciodm:CDISCDefinition>
                    <nciodm:PreferredTerm>C-SSRS Already Enrolled Subjects - Duration of Most Severe Ideation (Since Study Start)</nciodm:PreferredTerm>
                </EnumeratedItem>
                <EnumeratedItem CodedValue="CSS05-Most Severe Idea, Frequency-Prior" nciodm:ExtCodeID="C107046">
                    <nciodm:CDISCSynonym>CSS05-Most Severe Idea, Frequency-Prior</nciodm:CDISCSynonym>
                    <nciodm:CDISCDefinition>Columbia-Suicide Severity Rating Scale Already Enrolled Subjects - How many times have you had these thoughts? (Prior to Study Entry).</nciodm:CDISCDefinition>
                    <nciodm:PreferredTerm>C-SSRS Already Enrolled Subjects - Frequency of Most Severe Ideation (Prior to Study Entry)</nciodm:PreferredTerm>
                </EnumeratedItem>
                <EnumeratedItem CodedValue="CSS05-Most Severe Idea, Frequency-Since" nciodm:ExtCodeID="C107047">
                    <nciodm:CDISCSynonym>CSS05-Most Severe Idea, Frequency-Since</nciodm:CDISCSynonym>
                    <nciodm:CDISCDefinition>Columbia-Suicide Severity Rating Scale Already Enrolled Subjects - How many times have you had these thoughts? (Since Study Start).</nciodm:CDISCDefinition>
                    <nciodm:PreferredTerm>C-SSRS Already Enrolled Subjects - Frequency of Most Severe Ideation (Since Study Start)</nciodm:PreferredTerm>
                </EnumeratedItem>
                <EnumeratedItem CodedValue="CSS05-Most Severe Idea, Reasons-Prior" nciodm:ExtCodeID="C107054">
                    <nciodm:CDISCSynonym>CSS05-Most Severe Idea, Reasons-Prior</nciodm:CDISCSynonym>
                    <nciodm:CDISCDefinition>Columbia-Suicide Severity Rating Scale Already Enrolled Subjects - What sort of reasons did you have for thinking about wanting to die or killing yourself? Was it to end the pain or stop the way you were feeling (in other words you couldn't go on living with this pain or how you were feeling) or was it to get attention, revenge or a reaction from others? Or both? (Prior to Study Entry).</nciodm:CDISCDefinition>
                    <nciodm:PreferredTerm>C-SSRS Already Enrolled Subjects - Reasons For Most Severe Ideation (Prior to Study Entry)</nciodm:PreferredTerm>
                </EnumeratedItem>
                <EnumeratedItem CodedValue="CSS05-Most Severe Idea, Reasons-Since" nciodm:ExtCodeID="C107055">
                    <nciodm:CDISCSynonym>CSS05-Most Severe Idea, Reasons-Since</nciodm:CDISCSynonym>
                    <nciodm:CDISCDefinition>Columbia-Suicide Severity Rating Scale Already Enrolled Subjects - What sort of reasons did you have for thinking about wanting to die or killing yourself? Was it to end the pain or stop the way you were feeling (in other words you couldn't go on living with this pain or how you were feeling) or was it to get attention, revenge or a reaction from others? Or both? (Since Study Start).</nciodm:CDISCDefinition>
                    <nciodm:PreferredTerm>C-SSRS Already Enrolled Subjects - Reasons For Most Severe Ideation (Since Study Start)</nciodm:PreferredTerm>
                </EnumeratedItem>
                <EnumeratedItem CodedValue="CSS05-Most Severe Idea-Prior" nciodm:ExtCodeID="C107042">
                    <nciodm:CDISCSynonym>CSS05-Most Severe Idea-Prior</nciodm:CDISCSynonym>
                    <nciodm:CDISCDefinition>Columbia-Suicide Severity Rating Scale Already Enrolled Subjects - Most severe ideation. (Prior to Study Entry).</nciodm:CDISCDefinition>
                    <nciodm:PreferredTerm>C-SSRS Already Enrolled Subjects - Most Severe Ideation (Prior to Study Entry)</nciodm:PreferredTerm>
                </EnumeratedItem>
                <EnumeratedItem CodedValue="CSS05-Most Severe Idea-Since" nciodm:ExtCodeID="C107044">
                    <nciodm:CDISCSynonym>CSS05-Most Severe Idea-Since</nciodm:CDISCSynonym>
                    <nciodm:CDISCDefinition>Columbia-Suicide Severity Rating Scale Already Enrolled Subjects - Most severe ideation. (Since Study Start).</nciodm:CDISCDefinition>
                    <nciodm:PreferredTerm>C-SSRS Already Enrolled Subjects - Most Severe Ideation (Since Study Start)</nciodm:PreferredTerm>
                </EnumeratedItem>
                <EnumeratedItem CodedValue="CSS05-Non-Spec Suicid Thought, Describe" nciodm:ExtCodeID="C107032">
                    <nciodm:CDISCSynonym>CSS05-Non-Spec Suicid Thought, Describe</nciodm:CDISCSynonym>
                    <nciodm:CDISCDefinition>Columbia-Suicide Severity Rating Scale Already Enrolled Subjects - Description of non-specific active suicidal thoughts.</nciodm:CDISCDefinition>
                    <nciodm:PreferredTerm>C-SSRS Already Enrolled Subjects - Description of Non-Specific Active Suicidal Thoughts</nciodm:PreferredTerm>
                </EnumeratedItem>
                <EnumeratedItem CodedValue="CSS05-Non-Spec Suicid Thought-Prior" nciodm:ExtCodeID="C107030">
                    <nciodm:CDISCSynonym>CSS05-Non-Spec Suicid Thought-Prior</nciodm:CDISCSynonym>
                    <nciodm:CDISCDefinition>Columbia-Suicide Severity Rating Scale Already Enrolled Subjects - Have you actually had any thoughts of killing yourself? (Prior to Study Entry).</nciodm:CDISCDefinition>
                    <nciodm:PreferredTerm>C-SSRS Already Enrolled Subjects - Non-Specific Active Suicidal Thoughts (Prior to Study Entry)</nciodm:PreferredTerm>
                </EnumeratedItem>
                <EnumeratedItem CodedValue="CSS05-Non-Spec Suicid Thought-Since" nciodm:ExtCodeID="C107031">
                    <nciodm:CDISCSynonym>CSS05-Non-Spec Suicid Thought-Since</nciodm:CDISCSynonym>
                    <nciodm:CDISCDefinition>Columbia-Suicide Severity Rating Scale Already Enrolled Subjects - Have you actually had any thoughts of killing yourself? (Since Study Start).</nciodm:CDISCDefinition>
                    <nciodm:PreferredTerm>C-SSRS Already Enrolled Subjects - Non-Specific Active Suicidal Thoughts (Since Study Start)</nciodm:PreferredTerm>
                </EnumeratedItem>
                <EnumeratedItem CodedValue="CSS05-Non-suicid Self-injur Behav-Prior" nciodm:ExtCodeID="C107061">
                    <nciodm:CDISCSynonym>CSS05-Non-suicid Self-injur Behav-Prior</nciodm:CDISCSynonym>
                    <nciodm:CDISCDefinition>Columbia-Suicide Severity Rating Scale Already Enrolled Subjects - Has the subject engaged in non-suicidal self-injurious behavior? (Prior to Study Entry).</nciodm:CDISCDefinition>
                    <nciodm:PreferredTerm>C-SSRS Already Enrolled Subjects - Non-suicidal Self-injurious Behavior (Prior to Study Entry)</nciodm:PreferredTerm>
                </EnumeratedItem>
                <EnumeratedItem CodedValue="CSS05-Non-suicid Self-injur Behav-Since" nciodm:ExtCodeID="C107062">
                    <nciodm:CDISCSynonym>CSS05-Non-suicid Self-injur Behav-Since</nciodm:CDISCSynonym>
                    <nciodm:CDISCDefinition>Columbia-Suicide Severity Rating Scale Already Enrolled Subjects - Has the subject engaged in non-suicidal self-injurious behavior? (Since Study Start).</nciodm:CDISCDefinition>
                    <nciodm:PreferredTerm>C-SSRS Already Enrolled Subjects - Non-suicidal Self-injurious Behavior (Since Study Start)</nciodm:PreferredTerm>
                </EnumeratedItem>
                <EnumeratedItem CodedValue="CSS05-Num of Interrupted Attempts-Prior" nciodm:ExtCodeID="C107065">
                    <nciodm:CDISCSynonym>CSS05-Num of Interrupted Attempts-Prior</nciodm:CDISCSynonym>
                    <nciodm:CDISCDefinition>Columbia-Suicide Severity Rating Scale Already Enrolled Subjects - Total number of interrupted attempts. (Prior to Study Entry).</nciodm:CDISCDefinition>
                    <nciodm:PreferredTerm>C-SSRS Already Enrolled Subjects - Number of Interrupted Suicide Attempts (Prior to Study Entry)</nciodm:PreferredTerm>
                </EnumeratedItem>
                <EnumeratedItem CodedValue="CSS05-Num of Interrupted Attempts-Since" nciodm:ExtCodeID="C107066">
                    <nciodm:CDISCSynonym>CSS05-Num of Interrupted Attempts-Since</nciodm:CDISCSynonym>
                    <nciodm:CDISCDefinition>Columbia-Suicide Severity Rating Scale Already Enrolled Subjects - Total number of interrupted attempts. (Since Study Start).</nciodm:CDISCDefinition>
                    <nciodm:PreferredTerm>C-SSRS Already Enrolled Subjects - Number of Interrupted Suicide Attempts (Since Study Start)</nciodm:PreferredTerm>
                </EnumeratedItem>
                <EnumeratedItem CodedValue="CSS05-Number of Aborted Attempts-Prior" nciodm:ExtCodeID="C107070">
                    <nciodm:CDISCSynonym>CSS05-Number of Aborted Attempts-Prior</nciodm:CDISCSynonym>
                    <nciodm:CDISCDefinition>Columbia-Suicide Severity Rating Scale Already Enrolled Subjects - Total number of aborted attempts. (Prior to Study Entry).</nciodm:CDISCDefinition>
                    <nciodm:PreferredTerm>C-SSRS Already Enrolled Subjects - Number of Aborted Suicide Attempts (Prior to Study Entry)</nciodm:PreferredTerm>
                </EnumeratedItem>
                <EnumeratedItem CodedValue="CSS05-Number of Aborted Attempts-Since" nciodm:ExtCodeID="C107071">
                    <nciodm:CDISCSynonym>CSS05-Number of Aborted Attempts-Since</nciodm:CDISCSynonym>
                    <nciodm:CDISCDefinition>Columbia-Suicide Severity Rating Scale Already Enrolled Subjects - Total number of aborted attempts. (Since Study Start).</nciodm:CDISCDefinition>
                    <nciodm:PreferredTerm>C-SSRS Already Enrolled Subjects - Number of Aborted Suicide Attempts (Since Study Start)</nciodm:PreferredTerm>
                </EnumeratedItem>
                <EnumeratedItem CodedValue="CSS05-Number of Actual Attempts-Prior" nciodm:ExtCodeID="C107058">
                    <nciodm:CDISCSynonym>CSS05-Number of Actual Attempts-Prior</nciodm:CDISCSynonym>
                    <nciodm:CDISCDefinition>Columbia-Suicide Severity Rating Scale Already Enrolled Subjects - Total number of actual attempts. (Prior to Study Entry).</nciodm:CDISCDefinition>
                    <nciodm:PreferredTerm>C-SSRS Already Enrolled Subjects - Number of Actual Suicide Attempts (Prior to Study Entry)</nciodm:PreferredTerm>
                </EnumeratedItem>
                <EnumeratedItem CodedValue="CSS05-Number of Actual Attempts-Since" nciodm:ExtCodeID="C107059">
                    <nciodm:CDISCSynonym>CSS05-Number of Actual Attempts-Since</nciodm:CDISCSynonym>
                    <nciodm:CDISCDefinition>Columbia-Suicide Severity Rating Scale Already Enrolled Subjects - Total number of actual attempts. (Since Study Start).</nciodm:CDISCDefinition>
                    <nciodm:PreferredTerm>C-SSRS Already Enrolled Subjects - Number of Actual Suicide Attempts (Since Study Start)</nciodm:PreferredTerm>
                </EnumeratedItem>
                <EnumeratedItem CodedValue="CSS05-Preparatory Acts/Behavior, Descr" nciodm:ExtCodeID="C107075">
                    <nciodm:CDISCSynonym>CSS05-Preparatory Acts/Behavior, Descr</nciodm:CDISCSynonym>
                    <nciodm:CDISCDefinition>Columbia-Suicide Severity Rating Scale Already Enrolled Subjects - Description of preparatory acts or behavior.</nciodm:CDISCDefinition>
                    <nciodm:PreferredTerm>C-SSRS Already Enrolled Subjects - Description of Preparatory Acts or Behaviors Toward Suicide Attempt</nciodm:PreferredTerm>
                </EnumeratedItem>
                <EnumeratedItem CodedValue="CSS05-Preparatory Acts/Behavior-Prior" nciodm:ExtCodeID="C107073">
                    <nciodm:CDISCSynonym>CSS05-Preparatory Acts/Behavior-Prior</nciodm:CDISCSynonym>
                    <nciodm:CDISCDefinition>Columbia-Suicide Severity Rating Scale Already Enrolled Subjects - Have you taken any steps towards making a suicide attempt or preparing to kill yourself (such as collecting pills, getting a gun, giving valuables away or writing a suicide note)? (Prior to Study Entry).</nciodm:CDISCDefinition>
                    <nciodm:PreferredTerm>C-SSRS Already Enrolled Subjects - Preparatory Acts or Behaviors Toward Suicide Attempt (Prior to Study Entry)</nciodm:PreferredTerm>
                </EnumeratedItem>
                <EnumeratedItem CodedValue="CSS05-Preparatory Acts/Behavior-Since" nciodm:ExtCodeID="C107074">
                    <nciodm:CDISCSynonym>CSS05-Preparatory Acts/Behavior-Since</nciodm:CDISCSynonym>
                    <nciodm:CDISCDefinition>Columbia-Suicide Severity Rating Scale Already Enrolled Subjects - Have you taken any steps towards making a suicide attempt or preparing to kill yourself (such as collecting pills, getting a gun, giving valuables away or writing a suicide note)? (Since Study Start).</nciodm:CDISCDefinition>
                    <nciodm:PreferredTerm>C-SSRS Already Enrolled Subjects - Preparatory Acts or Behaviors Toward Suicide Attempt (Since Study Start)</nciodm:PreferredTerm>
                </EnumeratedItem>
                <EnumeratedItem CodedValue="CSS05-Suicidal Behavior-Prior" nciodm:ExtCodeID="C107076">
                    <nciodm:CDISCSynonym>CSS05-Suicidal Behavior-Prior</nciodm:CDISCSynonym>
                    <nciodm:CDISCDefinition>Columbia-Suicide Severity Rating Scale Already Enrolled Subjects - Suicidal behavior was present during the assessment period? (Prior to Study Entry).</nciodm:CDISCDefinition>
                    <nciodm:PreferredTerm>C-SSRS Already Enrolled Subjects - Suicidal Behavior (Prior to Study Entry)</nciodm:PreferredTerm>
                </EnumeratedItem>
                <EnumeratedItem CodedValue="CSS05-Suicidal Behavior-Since" nciodm:ExtCodeID="C107077">
                    <nciodm:CDISCSynonym>CSS05-Suicidal Behavior-Since</nciodm:CDISCSynonym>
                    <nciodm:CDISCDefinition>Columbia-Suicide Severity Rating Scale Already Enrolled Subjects - Suicidal behavior was present during the assessment period? (Since Study Start).</nciodm:CDISCDefinition>
                    <nciodm:PreferredTerm>C-SSRS Already Enrolled Subjects - Suicidal Behavior (Since Study Start)</nciodm:PreferredTerm>
                </EnumeratedItem>
                <EnumeratedItem CodedValue="CSS05-Wish to be Dead, Describe" nciodm:ExtCodeID="C107029">
                    <nciodm:CDISCSynonym>CSS05-Wish to be Dead, Describe</nciodm:CDISCSynonym>
                    <nciodm:CDISCDefinition>Columbia-Suicide Severity Rating Scale Already Enrolled Subjects - Description of wishing to be dead.</nciodm:CDISCDefinition>
                    <nciodm:PreferredTerm>C-SSRS Already Enrolled Subjects - Description of Wish to Be Dead</nciodm:PreferredTerm>
                </EnumeratedItem>
                <EnumeratedItem CodedValue="CSS05-Wish to be Dead-Prior" nciodm:ExtCodeID="C107027">
                    <nciodm:CDISCSynonym>CSS05-Wish to be Dead-Prior</nciodm:CDISCSynonym>
                    <nciodm:CDISCDefinition>Columbia-Suicide Severity Rating Scale Already Enrolled Subjects - Have you wished you were dead or wished you could go to sleep and not wake up? (Prior to Study Entry).</nciodm:CDISCDefinition>
                    <nciodm:PreferredTerm>C-SSRS Already Enrolled Subjects - Wish to Be Dead (Prior to Study Entry)</nciodm:PreferredTerm>
                </EnumeratedItem>
                <EnumeratedItem CodedValue="CSS05-Wish to be Dead-Since" nciodm:ExtCodeID="C107028">
                    <nciodm:CDISCSynonym>CSS05-Wish to be Dead-Since</nciodm:CDISCSynonym>
                    <nciodm:CDISCDefinition>Columbia-Suicide Severity Rating Scale Already Enrolled Subjects - Have you wished you were dead or wished you could go to sleep and not wake up? (Since Study Start).</nciodm:CDISCDefinition>
                    <nciodm:PreferredTerm>C-SSRS Already Enrolled Subjects - Wish to Be Dead (Since Study Start)</nciodm:PreferredTerm>
                </EnumeratedItem>
                <nciodm:CDISCSubmissionValue>CSS05TN</nciodm:CDISCSubmissionValue>
                <nciodm:CDISCSynonym>Columbia-Suicide Severity Rating Scale Already Enrolled Subjects Questionnaire Test Name</nciodm:CDISCSynonym>
                <nciodm:PreferredTerm>CDISC Questionnaire C-SSRS Already Enrolled Subjects Test Name Terminology</nciodm:PreferredTerm>
            </CodeList>
            
