<CodeList xmlns="http://www.cdisc.org/ns/odm/v1.3" xmlns:nciodm="http://ncicb.nci.nih.gov/xml/odm/EVS/CDISC" xmlns:xs="http://www.w3.org/2001/XMLSchema-instance" OID="CL.C142189.VNFATS" Name="Vaccines Findings About Test Name" DataType="text" nciodm:ExtCodeID="C142189" nciodm:CodeListExtensible="Yes">
                <Description>
                    <TranslatedText xml:lang="en">Terminology relevant to the test names that describe findings about a vaccines event or intervention.</TranslatedText>
                </Description>
                <EnumeratedItem CodedValue="Longest Diameter" nciodm:ExtCodeID="C96684">
                    <nciodm:CDISCSynonym>Longest Diameter</nciodm:CDISCSynonym>
                    <nciodm:CDISCDefinition>The longest possible length of a straight line passing through the center of a circular or spheroid object that connects two points on the circumference.</nciodm:CDISCDefinition>
                    <nciodm:PreferredTerm>Longest Diameter</nciodm:PreferredTerm>
                </EnumeratedItem>
                <EnumeratedItem CodedValue="Number of Episodes" nciodm:ExtCodeID="C124281">
                    <nciodm:CDISCSynonym>Number of Episodes</nciodm:CDISCSynonym>
                    <nciodm:CDISCDefinition>The total number of episodes that have occurred for the condition.</nciodm:CDISCDefinition>
                    <nciodm:PreferredTerm>Number of Episodes</nciodm:PreferredTerm>
                </EnumeratedItem>
                <EnumeratedItem CodedValue="Occurrence Indicator" nciodm:ExtCodeID="C127786">
                    <nciodm:CDISCSynonym>Occurrence Indicator</nciodm:CDISCSynonym>
                    <nciodm:CDISCDefinition>An indication as to whether something has happened, such as an event or incident.</nciodm:CDISCDefinition>
                    <nciodm:PreferredTerm>Occurrence Indicator</nciodm:PreferredTerm>
                </EnumeratedItem>
                <EnumeratedItem CodedValue="Severity/Intensity" nciodm:ExtCodeID="C25676">
                    <nciodm:CDISCSynonym>Severity/Intensity</nciodm:CDISCSynonym>
                    <nciodm:CDISCDefinition>The degree of something undesirable.</nciodm:CDISCDefinition>
                    <nciodm:PreferredTerm>Severity</nciodm:PreferredTerm>
                </EnumeratedItem>
                <nciodm:CDISCSubmissionValue>VNFATS</nciodm:CDISCSubmissionValue>
                <nciodm:CDISCSynonym>Vaccines Findings About Test Name</nciodm:CDISCSynonym>
                <nciodm:PreferredTerm>CDISC SDTM Vaccines Findings About Test Name Terminology</nciodm:PreferredTerm>
            </CodeList>
            
