<CodeList xmlns="http://www.cdisc.org/ns/odm/v1.3" xmlns:nciodm="http://ncicb.nci.nih.gov/xml/odm/EVS/CDISC" xmlns:xs="http://www.w3.org/2001/XMLSchema-instance" OID="CL.C88025.NEOPLASM" Name="Neoplasm Type" DataType="text" nciodm:ExtCodeID="C88025" nciodm:CodeListExtensible="Yes">
                <Description>
                    <TranslatedText xml:lang="en">The terminology that includes concepts relevant to benign or malignant tissue growth.</TranslatedText>
                </Description>
                <EnumeratedItem CodedValue="ACINAR-ISLET CELL TUMOR, BENIGN" nciodm:ExtCodeID="C116215">
                    <nciodm:CDISCDefinition>A benign tumor of the pancreas with morphologic characteristics of endocrine, acinar and ductal cells. (INHAND)</nciodm:CDISCDefinition>
                    <nciodm:PreferredTerm>Experimental Organism Benign Acinar-islet Cell Tumor</nciodm:PreferredTerm>
                </EnumeratedItem>
                <EnumeratedItem CodedValue="ACINAR-ISLET CELL TUMOR, MALIGNANT" nciodm:ExtCodeID="C6878">
                    <nciodm:CDISCDefinition>A malignant pancreatic neoplasm characterized by the presence of a mixture of acinar and islet cell elements.</nciodm:CDISCDefinition>
                    <nciodm:PreferredTerm>Mixed Acinar-Neuroendocrine Carcinoma of the Pancreas</nciodm:PreferredTerm>
                </EnumeratedItem>
                <EnumeratedItem CodedValue="ADAMANTINOMA, MALIGNANT" nciodm:ExtCodeID="C7644">
                    <nciodm:CDISCSynonym>Adamantinoma</nciodm:CDISCSynonym>
                    <nciodm:CDISCDefinition>A low-grade malignant neoplasm composed of epithelial cells and a spindle cell osteo-fibrous proliferation.</nciodm:CDISCDefinition>
                    <nciodm:PreferredTerm>Adamantinoma</nciodm:PreferredTerm>
                </EnumeratedItem>
                <EnumeratedItem CodedValue="ADENOACANTHOMA, MALIGNANT" nciodm:ExtCodeID="C4200">
                    <nciodm:CDISCSynonym>Adenoacanthoma</nciodm:CDISCSynonym>
                    <nciodm:CDISCDefinition>A malignant neoplasm arising from glandular cells that includes focal or extensive areas of squamous metaplasia.</nciodm:CDISCDefinition>
                    <nciodm:PreferredTerm>Adenocarcinoma with Squamous Metaplasia</nciodm:PreferredTerm>
                </EnumeratedItem>
                <EnumeratedItem CodedValue="ADENOCARCINOMA, CLEAR CELL, MALIGNANT" nciodm:ExtCodeID="C3766">
                    <nciodm:CDISCSynonym>Clear Cell Carcinoma</nciodm:CDISCSynonym>
                    <nciodm:CDISCSynonym>Mesonephroid Clear Cell Adenocarcinoma</nciodm:CDISCSynonym>
                    <nciodm:CDISCSynonym>Mesonephroid Clear Cell Carcinoma</nciodm:CDISCSynonym>
                    <nciodm:CDISCDefinition>A malignant neoplasm comprising glandular epithelial clear cells.</nciodm:CDISCDefinition>
                    <nciodm:PreferredTerm>Clear Cell Adenocarcinoma</nciodm:PreferredTerm>
                </EnumeratedItem>
                <EnumeratedItem CodedValue="ADENOCARCINOMA, ENDOMETRIAL, MALIGNANT" nciodm:ExtCodeID="C7359">
                    <nciodm:CDISCSynonym>Adenocarcinoma of Endometrium</nciodm:CDISCSynonym>
                    <nciodm:CDISCSynonym>Adenocarcinoma of the Endometrium</nciodm:CDISCSynonym>
                    <nciodm:CDISCDefinition>A malignant glandular neoplasm of the uterine lining.</nciodm:CDISCDefinition>
                    <nciodm:PreferredTerm>Endometrial Adenocarcinoma</nciodm:PreferredTerm>
                </EnumeratedItem>
                <EnumeratedItem CodedValue="ADENOCARCINOMA, MALIGNANT" nciodm:ExtCodeID="C2852">
                    <nciodm:CDISCDefinition>A malignant neoplasm arising from glandular cells.</nciodm:CDISCDefinition>
                    <nciodm:PreferredTerm>Adenocarcinoma</nciodm:PreferredTerm>
                </EnumeratedItem>
                <EnumeratedItem CodedValue="ADENOCARCINOMA, MUCINOUS, MALIGNANT" nciodm:ExtCodeID="C26712">
                    <nciodm:CDISCSynonym>Colloid Adenocarcinoma</nciodm:CDISCSynonym>
                    <nciodm:CDISCSynonym>Colloid Carcinoma</nciodm:CDISCSynonym>
                    <nciodm:CDISCSynonym>Gelatinous Adenocarcinoma</nciodm:CDISCSynonym>
                    <nciodm:CDISCSynonym>Gelatinous Carcinoma</nciodm:CDISCSynonym>
                    <nciodm:CDISCSynonym>Mucinous Carcinoma</nciodm:CDISCSynonym>
                    <nciodm:CDISCSynonym>Mucoid Adenocarcinoma</nciodm:CDISCSynonym>
                    <nciodm:CDISCSynonym>Mucoid Carcinoma</nciodm:CDISCSynonym>
                    <nciodm:CDISCSynonym>Mucous Adenocarcinoma</nciodm:CDISCSynonym>
                    <nciodm:CDISCSynonym>Mucous Carcinoma</nciodm:CDISCSynonym>
                    <nciodm:CDISCDefinition>An adenocarcinoma comprising neoplastic glandular cells containing intracytoplasmic mucin.</nciodm:CDISCDefinition>
                    <nciodm:PreferredTerm>Mucinous Adenocarcinoma</nciodm:PreferredTerm>
                </EnumeratedItem>
                <EnumeratedItem CodedValue="ADENOCARCINOMA, PAPILLARY, MALIGNANT" nciodm:ExtCodeID="C2853">
                    <nciodm:CDISCDefinition>An adenocarcinoma with papillary growth pattern.</nciodm:CDISCDefinition>
                    <nciodm:PreferredTerm>Papillary Adenocarcinoma</nciodm:PreferredTerm>
                </EnumeratedItem>
                <EnumeratedItem CodedValue="ADENOCARCINOMA, SEBACEOUS, MALIGNANT" nciodm:ExtCodeID="C40310">
                    <nciodm:CDISCSynonym>Carcinoma of Sebaceous Gland</nciodm:CDISCSynonym>
                    <nciodm:CDISCSynonym>Carcinoma of the Sebaceous Gland</nciodm:CDISCSynonym>
                    <nciodm:CDISCSynonym>Sebaceous Gland Carcinoma</nciodm:CDISCSynonym>
                    <nciodm:CDISCDefinition>An adenocarcinoma with sebaceous differentiation.</nciodm:CDISCDefinition>
                    <nciodm:PreferredTerm>Sebaceous Carcinoma</nciodm:PreferredTerm>
                </EnumeratedItem>
                <EnumeratedItem CodedValue="ADENOFIBROMA, BENIGN" nciodm:ExtCodeID="C8984">
                    <nciodm:CDISCSynonym>Benign Mixed Muellerian Tumor</nciodm:CDISCSynonym>
                    <nciodm:CDISCDefinition>Benign mixed neoplasm comprised of epithelial/glandular and mesenchymal structures.</nciodm:CDISCDefinition>
                    <nciodm:PreferredTerm>Adenofibroma</nciodm:PreferredTerm>
                </EnumeratedItem>
                <EnumeratedItem CodedValue="ADENOLIPOMA, BENIGN" nciodm:ExtCodeID="C4159">
                    <nciodm:CDISCDefinition>Benign mixed neoplasm comprised of epithelial/glandular and lipomatous structures.</nciodm:CDISCDefinition>
                    <nciodm:PreferredTerm>Lipoadenoma</nciodm:PreferredTerm>
                </EnumeratedItem>
                <EnumeratedItem CodedValue="ADENOMA, ACINAR CELL, BENIGN" nciodm:ExtCodeID="C4196">
                    <nciodm:CDISCSynonym>Acinar Adenoma</nciodm:CDISCSynonym>
                    <nciodm:CDISCSynonym>Acinic Cell Adenoma</nciodm:CDISCSynonym>
                    <nciodm:CDISCDefinition>A benign glandular epithelial neoplasm comprising secretory cells forming acinar patterns.</nciodm:CDISCDefinition>
                    <nciodm:PreferredTerm>Acinar Cell Adenoma</nciodm:PreferredTerm>
                </EnumeratedItem>
                <EnumeratedItem CodedValue="ADENOMA, ADNEXAL, BENIGN" nciodm:ExtCodeID="C7580">
                    <nciodm:CDISCSynonym>Adenoma of Adnexa</nciodm:CDISCSynonym>
                    <nciodm:CDISCSynonym>Adenoma of Skin Appendage</nciodm:CDISCSynonym>
                    <nciodm:CDISCSynonym>Adnexal Adenoma</nciodm:CDISCSynonym>
                    <nciodm:CDISCDefinition>A benign epithelial neoplasm arising from the sebaceous or sweat glands.</nciodm:CDISCDefinition>
                    <nciodm:PreferredTerm>Skin Appendage Adenoma</nciodm:PreferredTerm>
                </EnumeratedItem>
                <EnumeratedItem CodedValue="ADENOMA, ADRENOCORTICAL, BENIGN" nciodm:ExtCodeID="C9003">
                    <nciodm:CDISCSynonym>Adenoma of Adrenal Cortex</nciodm:CDISCSynonym>
                    <nciodm:CDISCSynonym>Adenoma of Adrenal Gland</nciodm:CDISCSynonym>
                    <nciodm:CDISCSynonym>Adenoma of the Adrenal Cortex</nciodm:CDISCSynonym>
                    <nciodm:CDISCSynonym>Adenoma of the Adrenal Gland</nciodm:CDISCSynonym>
                    <nciodm:CDISCSynonym>Adrenal Adenoma</nciodm:CDISCSynonym>
                    <nciodm:CDISCSynonym>Adrenal Cortical Adenoma</nciodm:CDISCSynonym>
                    <nciodm:CDISCSynonym>Adrenal Gland Adenoma</nciodm:CDISCSynonym>
                    <nciodm:CDISCSynonym>Adrenocortical Adenoma</nciodm:CDISCSynonym>
                    <nciodm:CDISCSynonym>Benign Adenoma of Adrenal Gland</nciodm:CDISCSynonym>
                    <nciodm:CDISCSynonym>Benign Adenoma of the Adrenal Gland</nciodm:CDISCSynonym>
                    <nciodm:CDISCSynonym>Benign Adrenal Adenoma</nciodm:CDISCSynonym>
                    <nciodm:CDISCSynonym>Benign Adrenal Gland Adenoma</nciodm:CDISCSynonym>
                    <nciodm:CDISCSynonym>Cortical Cell Adenoma</nciodm:CDISCSynonym>
                    <nciodm:CDISCDefinition>A benign neoplasm arising from any of the adrenal cortical layers.</nciodm:CDISCDefinition>
                    <nciodm:PreferredTerm>Adrenal Cortex Adenoma</nciodm:PreferredTerm>
                </EnumeratedItem>
                <EnumeratedItem CodedValue="ADENOMA, ANTERIOR LOBE PITUITARY GLAND, BENIGN" nciodm:ExtCodeID="C3329">
                    <nciodm:CDISCSynonym>Adenoma of Pituitary</nciodm:CDISCSynonym>
                    <nciodm:CDISCSynonym>Adenoma of Pituitary Gland</nciodm:CDISCSynonym>
                    <nciodm:CDISCSynonym>Adenoma of the Pituitary</nciodm:CDISCSynonym>
                    <nciodm:CDISCSynonym>Adenoma of the Pituitary Gland</nciodm:CDISCSynonym>
                    <nciodm:CDISCSynonym>Pituitary Adenoma</nciodm:CDISCSynonym>
                    <nciodm:CDISCDefinition>A benign neoplasm of the anterior lobe of the pituitary gland.</nciodm:CDISCDefinition>
                    <nciodm:PreferredTerm>Pituitary Gland Adenoma</nciodm:PreferredTerm>
                </EnumeratedItem>
                <EnumeratedItem CodedValue="ADENOMA, BENIGN" nciodm:ExtCodeID="C2855">
                    <nciodm:CDISCDefinition>A benign neoplasm arising from epithelium.</nciodm:CDISCDefinition>
                    <nciodm:PreferredTerm>Adenoma</nciodm:PreferredTerm>
                </EnumeratedItem>
                <EnumeratedItem CodedValue="ADENOMA, BRONCHIAL, BENIGN" nciodm:ExtCodeID="C3494">
                    <nciodm:CDISCDefinition>A benign neoplasia of the lung, arising from bronchial epithelium.</nciodm:CDISCDefinition>
                    <nciodm:PreferredTerm>Lung Papillary Adenoma</nciodm:PreferredTerm>
                </EnumeratedItem>
                <EnumeratedItem CodedValue="ADENOMA, BRONCHIOLOALVEOLAR, BENIGN" nciodm:ExtCodeID="C4140">
                    <nciodm:CDISCSynonym>Adenoma of Alveoli</nciodm:CDISCSynonym>
                    <nciodm:CDISCSynonym>Adenoma of the Alveoli</nciodm:CDISCSynonym>
                    <nciodm:CDISCDefinition>A benign lung neoplasm arising from the alveolar/bronchiolar epithelium.</nciodm:CDISCDefinition>
                    <nciodm:PreferredTerm>Alveolar Adenoma</nciodm:PreferredTerm>
                </EnumeratedItem>
                <EnumeratedItem CodedValue="ADENOMA, C-CELL, BENIGN" nciodm:ExtCodeID="C46101">
                    <nciodm:CDISCSynonym>Parafollicular Cell Adenoma</nciodm:CDISCSynonym>
                    <nciodm:CDISCDefinition>A benign neoplasm arising from C-cells of the thyroid gland.</nciodm:CDISCDefinition>
                    <nciodm:PreferredTerm>Neoplastic C-Cell Hyperplasia</nciodm:PreferredTerm>
                </EnumeratedItem>
                <EnumeratedItem CodedValue="ADENOMA, CERUMINOUS GLAND, BENIGN" nciodm:ExtCodeID="C6088">
                    <nciodm:CDISCSynonym>Ceruminoma</nciodm:CDISCSynonym>
                    <nciodm:CDISCSynonym>Ceruminous Adenoma</nciodm:CDISCSynonym>
                    <nciodm:CDISCSynonym>Ceruminous Adenoma of External Auditory Canal</nciodm:CDISCSynonym>
                    <nciodm:CDISCSynonym>Ceruminous Adenoma of the External Auditory Canal</nciodm:CDISCSynonym>
                    <nciodm:CDISCDefinition>A benign epithelial neoplasm derived from ceruminous glands in the external auditory canal.</nciodm:CDISCDefinition>
                    <nciodm:PreferredTerm>External Auditory Canal Ceruminous Adenoma</nciodm:PreferredTerm>
                </EnumeratedItem>
                <EnumeratedItem CodedValue="ADENOMA, CLEAR CELL, BENIGN" nciodm:ExtCodeID="C4151">
                    <nciodm:CDISCDefinition>A benign neoplasm comprising glands containing epithelial clear cells.</nciodm:CDISCDefinition>
                    <nciodm:PreferredTerm>Clear Cell Adenoma</nciodm:PreferredTerm>
                </EnumeratedItem>
                <EnumeratedItem CodedValue="ADENOMA, FOLLICULAR CELL, BENIGN" nciodm:ExtCodeID="C3502">
                    <nciodm:CDISCSynonym>Adenoma of Thyroid</nciodm:CDISCSynonym>
                    <nciodm:CDISCSynonym>Adenoma of Thyroid Gland</nciodm:CDISCSynonym>
                    <nciodm:CDISCSynonym>Adenoma of the Thyroid</nciodm:CDISCSynonym>
                    <nciodm:CDISCSynonym>Adenoma of the Thyroid Gland</nciodm:CDISCSynonym>
                    <nciodm:CDISCSynonym>Follicular Adenoma</nciodm:CDISCSynonym>
                    <nciodm:CDISCSynonym>Follicular Adenoma of Thyroid</nciodm:CDISCSynonym>
                    <nciodm:CDISCSynonym>Follicular Adenoma of Thyroid Gland</nciodm:CDISCSynonym>
                    <nciodm:CDISCSynonym>Follicular Adenoma of the Thyroid</nciodm:CDISCSynonym>
                    <nciodm:CDISCSynonym>Follicular Adenoma of the Thyroid Gland</nciodm:CDISCSynonym>
                    <nciodm:CDISCSynonym>Thyroid Adenoma</nciodm:CDISCSynonym>
                    <nciodm:CDISCSynonym>Thyroid Follicular Adenoma</nciodm:CDISCSynonym>
                    <nciodm:CDISCSynonym>Thyroid Gland Adenoma</nciodm:CDISCSynonym>
                    <nciodm:CDISCDefinition>A benign neoplasm arising from follicular cells of the thyroid gland.</nciodm:CDISCDefinition>
                    <nciodm:PreferredTerm>Thyroid Gland Follicular Adenoma</nciodm:PreferredTerm>
                </EnumeratedItem>
                <EnumeratedItem CodedValue="ADENOMA, HEPATOCELLULAR, BENIGN" nciodm:ExtCodeID="C3758">
                    <nciodm:CDISCSynonym>Adenoma of Liver Cells</nciodm:CDISCSynonym>
                    <nciodm:CDISCSynonym>Adenoma of the Liver Cells</nciodm:CDISCSynonym>
                    <nciodm:CDISCSynonym>HCA</nciodm:CDISCSynonym>
                    <nciodm:CDISCSynonym>Liver Cell Adenoma</nciodm:CDISCSynonym>
                    <nciodm:CDISCDefinition>A benign epithelial neoplasm arising from hepatocytes.</nciodm:CDISCDefinition>
                    <nciodm:PreferredTerm>Hepatocellular Adenoma</nciodm:PreferredTerm>
                </EnumeratedItem>
                <EnumeratedItem CodedValue="ADENOMA, HEPATOCHOLANGIOCELLULAR, BENIGN" nciodm:ExtCodeID="C7126">
                    <nciodm:CDISCDefinition>A benign neoplasm arising from the intrahepatic bile duct.</nciodm:CDISCDefinition>
                    <nciodm:PreferredTerm>Intrahepatic Bile Duct Adenoma</nciodm:PreferredTerm>
                </EnumeratedItem>
                <EnumeratedItem CodedValue="ADENOMA, ISLET CELL, BENIGN" nciodm:ExtCodeID="C114108">
                    <nciodm:CDISCSynonym>Islet Cell Adenoma</nciodm:CDISCSynonym>
                    <nciodm:CDISCDefinition>A benign neoplasm arising from the islet cells of the pancreas.</nciodm:CDISCDefinition>
                    <nciodm:PreferredTerm>Experimental Organism Islet Cell Adenoma Neoplasm</nciodm:PreferredTerm>
                </EnumeratedItem>
                <EnumeratedItem CodedValue="ADENOMA, LIGHT CELL, BENIGN" nciodm:ExtCodeID="C46119">
                    <nciodm:CDISCDefinition>A benign epithelial neoplasm of the thyroid gland comprising follicular cells with cytoplasmic clearing.</nciodm:CDISCDefinition>
                    <nciodm:PreferredTerm>Thyroid Gland Clear Cell Follicular Adenoma</nciodm:PreferredTerm>
                </EnumeratedItem>
                <EnumeratedItem CodedValue="ADENOMA, MUCINOUS, BENIGN" nciodm:ExtCodeID="C2973">
                    <nciodm:CDISCSynonym>Mucinous Adenoma</nciodm:CDISCSynonym>
                    <nciodm:CDISCSynonym>Mucinous Cystoma</nciodm:CDISCSynonym>
                    <nciodm:CDISCSynonym>Pseudomucinous Cystadenoma</nciodm:CDISCSynonym>
                    <nciodm:CDISCDefinition>A benign, cystic epithelial neoplasm comprising cells containing intracytoplasmic mucin.</nciodm:CDISCDefinition>
                    <nciodm:PreferredTerm>Mucinous Cystadenoma</nciodm:PreferredTerm>
                </EnumeratedItem>
                <EnumeratedItem CodedValue="ADENOMA, PAPILLARY, BENIGN" nciodm:ExtCodeID="C79951">
                    <nciodm:CDISCDefinition>A benign epithelial neoplasm characterized by the presence of papillary epithelial patterns.</nciodm:CDISCDefinition>
                    <nciodm:PreferredTerm>Papillary Adenoma</nciodm:PreferredTerm>
                </EnumeratedItem>
                <EnumeratedItem CodedValue="ADENOMA, PARS DISTALIS, BENIGN" nciodm:ExtCodeID="C60490">
                    <nciodm:CDISCSynonym>Rat Pars Distalis Adenoma</nciodm:CDISCSynonym>
                    <nciodm:CDISCDefinition>A benign epithelial neoplasm arising from the pars distalis of the anterior pituitary gland.</nciodm:CDISCDefinition>
                    <nciodm:PreferredTerm>Rat Pars Distalis Adenoma</nciodm:PreferredTerm>
                </EnumeratedItem>
                <EnumeratedItem CodedValue="ADENOMA, PARS INTERMEDIA, BENIGN" nciodm:ExtCodeID="C60493">
                    <nciodm:CDISCSynonym>Rat Pars Intermedia Adenoma</nciodm:CDISCSynonym>
                    <nciodm:CDISCDefinition>A benign epithelial neoplasm arising from the pars intermedia of the anterior pituitary gland.</nciodm:CDISCDefinition>
                    <nciodm:PreferredTerm>Rat Pars Intermedia Adenoma</nciodm:PreferredTerm>
                </EnumeratedItem>
                <EnumeratedItem CodedValue="ADENOMA, PITUITARY GLAND, BENIGN" nciodm:ExtCodeID="C98723">
                    <nciodm:CDISCDefinition>A benign neoplasm of the pituitary gland.</nciodm:CDISCDefinition>
                    <nciodm:PreferredTerm>Experimental Organism Pituitary Gland Adenoma</nciodm:PreferredTerm>
                </EnumeratedItem>
                <EnumeratedItem CodedValue="ADENOMA, RENAL CELL, BENIGN" nciodm:ExtCodeID="C8383">
                    <nciodm:CDISCSynonym>Renal Tubule Adenoma</nciodm:CDISCSynonym>
                    <nciodm:CDISCDefinition>A benign neoplasm arising from the renal cortex.</nciodm:CDISCDefinition>
                    <nciodm:PreferredTerm>Kidney Adenoma</nciodm:PreferredTerm>
                </EnumeratedItem>
                <EnumeratedItem CodedValue="ADENOMA, RETE TESTIS, BENIGN" nciodm:ExtCodeID="C39956">
                    <nciodm:CDISCDefinition>A benign epithelial neoplasm arising from the rete testis.</nciodm:CDISCDefinition>
                    <nciodm:PreferredTerm>Rete Testis Adenoma</nciodm:PreferredTerm>
                </EnumeratedItem>
                <EnumeratedItem CodedValue="ADENOMA, SEBACEOUS, BENIGN" nciodm:ExtCodeID="C4174">
                    <nciodm:CDISCSynonym>Adenoma of Sebaceous Gland</nciodm:CDISCSynonym>
                    <nciodm:CDISCSynonym>Adenoma of the Sebaceous Gland</nciodm:CDISCSynonym>
                    <nciodm:CDISCSynonym>Sebaceous Gland Adenoma</nciodm:CDISCSynonym>
                    <nciodm:CDISCSynonym>Skin Appendage Sebaceous Adenoma</nciodm:CDISCSynonym>
                    <nciodm:CDISCDefinition>A benign neoplasm arising from sebaceous glands.</nciodm:CDISCDefinition>
                    <nciodm:PreferredTerm>Sebaceous Adenoma</nciodm:PreferredTerm>
                </EnumeratedItem>
                <EnumeratedItem CodedValue="ADENOMA, SERTOLIFORM TUBULAR, BENIGN" nciodm:ExtCodeID="C92180">
                    <nciodm:CDISCSynonym>Rat Sertoliform Tubular Adenoma</nciodm:CDISCSynonym>
                    <nciodm:CDISCDefinition>A benign tubular adenoma with Sertoli cell differentiation.</nciodm:CDISCDefinition>
                    <nciodm:PreferredTerm>Rat Sertoliform Tubular Adenoma</nciodm:PreferredTerm>
                </EnumeratedItem>
                <EnumeratedItem CodedValue="ADENOMA, SWEAT GLAND, BENIGN" nciodm:ExtCodeID="C7560">
                    <nciodm:CDISCSynonym>Adenoma of Sweat Gland</nciodm:CDISCSynonym>
                    <nciodm:CDISCSynonym>Adenoma of the Sweat Gland</nciodm:CDISCSynonym>
                    <nciodm:CDISCDefinition>A benign epithelias neoplasm arising from sweat glands.</nciodm:CDISCDefinition>
                    <nciodm:PreferredTerm>Sweat Gland Adenoma</nciodm:PreferredTerm>
                </EnumeratedItem>
                <EnumeratedItem CodedValue="ADENOMA, TUBULAR CELL, BENIGN" nciodm:ExtCodeID="C4133">
                    <nciodm:CDISCDefinition>A benign neoplasm arising from glandular epithelium, characterized by a tubular architectural pattern.</nciodm:CDISCDefinition>
                    <nciodm:PreferredTerm>Tubular Adenoma</nciodm:PreferredTerm>
                </EnumeratedItem>
                <EnumeratedItem CodedValue="ADENOMA, TUBULOSTROMAL, BENIGN" nciodm:ExtCodeID="C79953">
                    <nciodm:CDISCDefinition>A benign ovarian epithelial neoplasm characterized by the presence of tubular structures and interstitial stroma.</nciodm:CDISCDefinition>
                    <nciodm:PreferredTerm>Tubulostromal Adenoma</nciodm:PreferredTerm>
                </EnumeratedItem>
                <EnumeratedItem CodedValue="ADENOMA, ZYMBAL'S GLAND, BENIGN" nciodm:ExtCodeID="C98800">
                    <nciodm:CDISCDefinition>A benign neoplasm of the rodent Zymbal's gland with sebaceous and/or squamous differentiation.</nciodm:CDISCDefinition>
                    <nciodm:PreferredTerm>Zymbal's Gland Adenoma</nciodm:PreferredTerm>
                </EnumeratedItem>
                <EnumeratedItem CodedValue="ADENOMYOMA, BENIGN" nciodm:ExtCodeID="C3726">
                    <nciodm:CDISCDefinition>A benign neoplasm characterized by the presence of a glandular and a mesenchymal component.</nciodm:CDISCDefinition>
                    <nciodm:PreferredTerm>Adenomyoma</nciodm:PreferredTerm>
                </EnumeratedItem>
                <EnumeratedItem CodedValue="ADRENAL TUMOR, SUBCAPSULAR, BENIGN" nciodm:ExtCodeID="C83488">
                    <nciodm:CDISCSynonym>Subcapsular Single Cell Adenoma, Adrenal</nciodm:CDISCSynonym>
                    <nciodm:CDISCDefinition>A benign neoplasm located beneath the adrenal capsule.</nciodm:CDISCDefinition>
                    <nciodm:PreferredTerm>Benign Subcapsular Adrenal Tumor</nciodm:PreferredTerm>
                </EnumeratedItem>
                <EnumeratedItem CodedValue="ADRENAL TUMOR, SUBCAPSULAR, MALIGNANT" nciodm:ExtCodeID="C83489">
                    <nciodm:CDISCSynonym>Subcapsular Single Cell Carcinoma, Adrenal</nciodm:CDISCSynonym>
                    <nciodm:CDISCDefinition>A malignant neoplasm located beneath the adrenal capsule.</nciodm:CDISCDefinition>
                    <nciodm:PreferredTerm>Malignant Subcapsular Adrenal Tumor</nciodm:PreferredTerm>
                </EnumeratedItem>
                <EnumeratedItem CodedValue="ADRENAL TUMOR, SUBCAPSULAR, UNDETERMINED" nciodm:ExtCodeID="C82973">
                    <nciodm:CDISCSynonym>Subcapsular Cell Tumor, Adrenal</nciodm:CDISCSynonym>
                    <nciodm:CDISCDefinition>A neoplasm located beneath the adrenal capsule in which the malignancy status has not been established.</nciodm:CDISCDefinition>
                    <nciodm:PreferredTerm>Subcapsular Adrenal Tumor</nciodm:PreferredTerm>
                </EnumeratedItem>
                <EnumeratedItem CodedValue="ADRENOCORTICAL NEOPLASM, UNDETERMINED" nciodm:ExtCodeID="C2858">
                    <nciodm:CDISCSynonym>Adrenal Cortex Tumor</nciodm:CDISCSynonym>
                    <nciodm:CDISCSynonym>Adrenocortical Neoplasm</nciodm:CDISCSynonym>
                    <nciodm:CDISCSynonym>Adrenocortical Tumor</nciodm:CDISCSynonym>
                    <nciodm:CDISCDefinition>A neoplasm of the adrenal cortex in which the malignancy status has not been established.</nciodm:CDISCDefinition>
                    <nciodm:PreferredTerm>Adrenal Cortex Neoplasm</nciodm:PreferredTerm>
                </EnumeratedItem>
                <EnumeratedItem CodedValue="AMELOBLASTOMA, BENIGN" nciodm:ExtCodeID="C7111">
                    <nciodm:CDISCDefinition>A benign odontogenic neoplasm arising from the epithelial component of the embryonic tooth.</nciodm:CDISCDefinition>
                    <nciodm:PreferredTerm>Benign Ameloblastoma</nciodm:PreferredTerm>
                </EnumeratedItem>
                <EnumeratedItem CodedValue="AMELOBLASTOMA, MALIGNANT" nciodm:ExtCodeID="C54297">
                    <nciodm:CDISCSynonym>Malignant Ameloblastoma</nciodm:CDISCSynonym>
                    <nciodm:CDISCDefinition>A malignant odontogenic neoplasm arising from the epithelial component of the embryonic tooth.</nciodm:CDISCDefinition>
                    <nciodm:PreferredTerm>Metastasizing Ameloblastoma</nciodm:PreferredTerm>
                </EnumeratedItem>
                <EnumeratedItem CodedValue="AMELOBLASTOMA, UNDETERMINED" nciodm:ExtCodeID="C4313">
                    <nciodm:CDISCDefinition>A odontogenic neoplasm arising from the epithelial component of the embryonic tooth of undetermined malignancy status.</nciodm:CDISCDefinition>
                    <nciodm:PreferredTerm>Ameloblastoma</nciodm:PreferredTerm>
                </EnumeratedItem>
                <EnumeratedItem CodedValue="ANGIOFIBROMA, BENIGN" nciodm:ExtCodeID="C3799">
                    <nciodm:CDISCSynonym>Angiofibromatous Hyperplasia</nciodm:CDISCSynonym>
                    <nciodm:CDISCSynonym>Fibroangioma, Benign</nciodm:CDISCSynonym>
                    <nciodm:CDISCSynonym>Fibrous Papule</nciodm:CDISCSynonym>
                    <nciodm:CDISCSynonym>Telangiectatic Fibroma</nciodm:CDISCSynonym>
                    <nciodm:CDISCDefinition>A benign, morphologic variant of fibroma characterized by the presence of numerous dilated vascular channels.</nciodm:CDISCDefinition>
                    <nciodm:PreferredTerm>Angiofibroma</nciodm:PreferredTerm>
                </EnumeratedItem>
                <EnumeratedItem CodedValue="ANGIOLIPOMA, BENIGN" nciodm:ExtCodeID="C3733">
                    <nciodm:CDISCSynonym>Angiolipoma</nciodm:CDISCSynonym>
                    <nciodm:CDISCDefinition>A lipoma characterized by prominent vascularization.</nciodm:CDISCDefinition>
                    <nciodm:PreferredTerm>Angiolipoma</nciodm:PreferredTerm>
                </EnumeratedItem>
                <EnumeratedItem CodedValue="ARRHENOBLASTOMA, BENIGN" nciodm:ExtCodeID="C4209">
                    <nciodm:CDISCSynonym>Arrhenoblastoma, Benign</nciodm:CDISCSynonym>
                    <nciodm:CDISCDefinition>A benign Sertoli-Leydig neoplasm of the ovary characterized by the presence of Sertoli cells in tubules without evidence of significant nuclear atypia or mitotic activity.</nciodm:CDISCDefinition>
                    <nciodm:PreferredTerm>Well Differentiated Ovarian Sertoli-Leydig Cell Tumor</nciodm:PreferredTerm>
                </EnumeratedItem>
                <EnumeratedItem CodedValue="ARRHENOBLASTOMA, MALIGNANT" nciodm:ExtCodeID="C4210">
                    <nciodm:CDISCSynonym>Arrhenoblastoma, Malignant</nciodm:CDISCSynonym>
                    <nciodm:CDISCDefinition>A malignant Sertoli-Leydig neoplasm of the ovary characterized by the presence of a sarcomatoid stroma which contains primitive gonadal stromal cells.</nciodm:CDISCDefinition>
                    <nciodm:PreferredTerm>Poorly Differentiated Ovarian Sertoli-Leydig Cell Tumor</nciodm:PreferredTerm>
                </EnumeratedItem>
                <EnumeratedItem CodedValue="ASTROCYTOMA, ANAPLASTIC, MALIGNANT" nciodm:ExtCodeID="C9477">
                    <nciodm:CDISCSynonym>Grade III Astrocytic Neoplasm</nciodm:CDISCSynonym>
                    <nciodm:CDISCSynonym>Grade III Astrocytic Tumor</nciodm:CDISCSynonym>
                    <nciodm:CDISCSynonym>Grade III Astrocytoma</nciodm:CDISCSynonym>
                    <nciodm:CDISCSynonym>Malignant Astrocytoma</nciodm:CDISCSynonym>
                    <nciodm:CDISCDefinition>A malignant neoplasm of the brain or spinal cord originating from astrocytes, exhibiting poor differentiation (anaplasia).</nciodm:CDISCDefinition>
                    <nciodm:PreferredTerm>Anaplastic Astrocytoma</nciodm:PreferredTerm>
                </EnumeratedItem>
                <EnumeratedItem CodedValue="ASTROCYTOMA, DIFFUSE, MALIGNANT" nciodm:ExtCodeID="C7173">
                    <nciodm:CDISCSynonym>Astrocytoma, Diffuse</nciodm:CDISCSynonym>
                    <nciodm:CDISCDefinition>A malignant astrocytic neoplasm characterized by a high degree of cellular differentiation, slow growth, and diffuse infiltration of neighboring brain structures.</nciodm:CDISCDefinition>
                    <nciodm:PreferredTerm>Diffuse Astrocytoma</nciodm:PreferredTerm>
                </EnumeratedItem>
                <EnumeratedItem CodedValue="ASTROCYTOMA, MALIGNANT" nciodm:ExtCodeID="C119574">
                    <nciodm:CDISCDefinition>A malignant neoplasm of the brain or spinal cord originating from astrocytes.</nciodm:CDISCDefinition>
                    <nciodm:PreferredTerm>Experimental Organism Malignant Astrocytoma</nciodm:PreferredTerm>
                </EnumeratedItem>
                <EnumeratedItem CodedValue="ASTROCYTOMA, PILOCYTIC, BENIGN" nciodm:ExtCodeID="C4047">
                    <nciodm:CDISCSynonym>Astrocytoma, Benign</nciodm:CDISCSynonym>
                    <nciodm:CDISCSynonym>Grade I Astrocytic Neoplasm</nciodm:CDISCSynonym>
                    <nciodm:CDISCSynonym>Grade I Astrocytic Tumor</nciodm:CDISCSynonym>
                    <nciodm:CDISCSynonym>Grade I Astrocytoma</nciodm:CDISCSynonym>
                    <nciodm:CDISCDefinition>A benign neoplasm of the brain or spinal cord arising from astrocytes associated with single or multiple cysts.</nciodm:CDISCDefinition>
                    <nciodm:PreferredTerm>Pilocytic Astrocytoma</nciodm:PreferredTerm>
                </EnumeratedItem>
                <EnumeratedItem CodedValue="ASTROCYTOMA, UNDETERMINED" nciodm:ExtCodeID="C60781">
                    <nciodm:CDISCDefinition>A neoplasm of the brain or spinal cord exhibiting astrocytic differentiation, but in which the malignancy status has not been established.</nciodm:CDISCDefinition>
                    <nciodm:PreferredTerm>Astrocytoma</nciodm:PreferredTerm>
                </EnumeratedItem>
                <EnumeratedItem CodedValue="BASAL CELL TUMOR, BENIGN" nciodm:ExtCodeID="C111198">
                    <nciodm:CDISCSynonym>Adenoma, Basal Cell, Benign</nciodm:CDISCSynonym>
                    <nciodm:CDISCDefinition>A benign epithelial neoplasm with a uniform, monomorphic appearance that is dominated by basal cells.</nciodm:CDISCDefinition>
                    <nciodm:PreferredTerm>Experimental Organism Basal Cell Adenoma</nciodm:PreferredTerm>
                </EnumeratedItem>
                <EnumeratedItem CodedValue="BASALIOMA, BENIGN" nciodm:ExtCodeID="C103391">
                    <nciodm:CDISCSynonym>Basalioma</nciodm:CDISCSynonym>
                    <nciodm:CDISCDefinition>A benign epithelial neoplasm arising from primary epithelial germ cells of the piliary complex.</nciodm:CDISCDefinition>
                    <nciodm:PreferredTerm>Experimental Organism Benign Basalioma</nciodm:PreferredTerm>
                </EnumeratedItem>
                <EnumeratedItem CodedValue="BASOSQUAMOUS TUMOR, BENIGN" nciodm:ExtCodeID="C4614">
                    <nciodm:CDISCSynonym>Cutaneous Papilloma</nciodm:CDISCSynonym>
                    <nciodm:CDISCSynonym>Papilloma of Skin</nciodm:CDISCSynonym>
                    <nciodm:CDISCSynonym>Papilloma of the Skin</nciodm:CDISCSynonym>
                    <nciodm:CDISCDefinition>A benign papillary neoplasm of the skin.</nciodm:CDISCDefinition>
                    <nciodm:PreferredTerm>Skin Papilloma</nciodm:PreferredTerm>
                </EnumeratedItem>
                <EnumeratedItem CodedValue="BASOSQUAMOUS TUMOR, MALIGNANT" nciodm:ExtCodeID="C2922">
                    <nciodm:CDISCSynonym>Basosquamous Carcinoma</nciodm:CDISCSynonym>
                    <nciodm:CDISCSynonym>Basosquamous Cell Carcinoma</nciodm:CDISCSynonym>
                    <nciodm:CDISCSynonym>Skin Mixed Basal and Squamous Cell Carcinoma</nciodm:CDISCSynonym>
                    <nciodm:CDISCDefinition>A basal cell carcinoma (skin neoplasm) which displays squamous differentiation.</nciodm:CDISCDefinition>
                    <nciodm:PreferredTerm>Skin Basosquamous Cell Carcinoma</nciodm:PreferredTerm>
                </EnumeratedItem>
                <EnumeratedItem CodedValue="CARCINOID TUMOR, MALIGNANT" nciodm:ExtCodeID="C72074">
                    <nciodm:CDISCSynonym>Malignant Carcinoid Tumor</nciodm:CDISCSynonym>
                    <nciodm:CDISCDefinition>A malignant neuroendocrine neoplasm arising from enterochromaffin cells in the gastrointestinal tract and (less common) in the bronchi.</nciodm:CDISCDefinition>
                    <nciodm:PreferredTerm>Atypical Carcinoid Tumor</nciodm:PreferredTerm>
                </EnumeratedItem>
                <EnumeratedItem CodedValue="CARCINOID TUMOR, UNDETERMINED" nciodm:ExtCodeID="C2915">
                    <nciodm:CDISCSynonym>Carcinoid</nciodm:CDISCSynonym>
                    <nciodm:CDISCSynonym>Carcinoid Neoplasm</nciodm:CDISCSynonym>
                    <nciodm:CDISCSynonym>Well-differentiated Endocrine Neoplasm</nciodm:CDISCSynonym>
                    <nciodm:CDISCDefinition>A neuroendocrine neoplasm arising from enterochromaffin cells in the gastrointestinal tract and (less common) the bronchi with undetermined malignancy status.</nciodm:CDISCDefinition>
                    <nciodm:PreferredTerm>Carcinoid Tumor</nciodm:PreferredTerm>
                </EnumeratedItem>
                <EnumeratedItem CodedValue="CARCINOMA, ACIDOPHIL, MALIGNANT" nciodm:ExtCodeID="C114109">
                    <nciodm:CDISCSynonym>Acidophil Adenocarcinoma</nciodm:CDISCSynonym>
                    <nciodm:CDISCSynonym>Acidophil Carcinoma</nciodm:CDISCSynonym>
                    <nciodm:CDISCSynonym>Eosinophil Adenocarcinoma</nciodm:CDISCSynonym>
                    <nciodm:CDISCSynonym>Eosinophil Carcinoma</nciodm:CDISCSynonym>
                    <nciodm:CDISCDefinition>A malignant epithelial neoplasm of the anterior pituitary gland in which the neoplastic cells stain positive with acidic dyes.</nciodm:CDISCDefinition>
                    <nciodm:PreferredTerm>Experimental Organism Acidophil Carcinoma Neoplasm</nciodm:PreferredTerm>
                </EnumeratedItem>
                <EnumeratedItem CodedValue="CARCINOMA, ACINAR CELL, MALIGNANT" nciodm:ExtCodeID="C3768">
                    <nciodm:CDISCSynonym>Acinar Adenocarcinoma</nciodm:CDISCSynonym>
                    <nciodm:CDISCSynonym>Acinar Carcinoma</nciodm:CDISCSynonym>
                    <nciodm:CDISCSynonym>Acinar Cell Adenocarcinoma</nciodm:CDISCSynonym>
                    <nciodm:CDISCSynonym>Acinic Cell Adenocarcinoma</nciodm:CDISCSynonym>
                    <nciodm:CDISCSynonym>Acinic Cell Carcinoma</nciodm:CDISCSynonym>
                    <nciodm:CDISCDefinition>A malignant glandular epithelial neoplasm comprising secretory cells forming acinar patterns.</nciodm:CDISCDefinition>
                    <nciodm:PreferredTerm>Acinar Cell Carcinoma</nciodm:PreferredTerm>
                </EnumeratedItem>
                <EnumeratedItem CodedValue="CARCINOMA, ADENOSQUAMOUS, MALIGNANT" nciodm:ExtCodeID="C3727">
                    <nciodm:CDISCSynonym>Mixed Adenocarcinoma and Epidermoid Carcinoma</nciodm:CDISCSynonym>
                    <nciodm:CDISCSynonym>Mixed Adenocarcinoma and Epidermoid Cell Carcinoma</nciodm:CDISCSynonym>
                    <nciodm:CDISCSynonym>Mixed Adenocarcinoma and Squamous Carcinoma</nciodm:CDISCSynonym>
                    <nciodm:CDISCSynonym>Mixed Adenocarcinoma and Squamous Cell Carcinoma</nciodm:CDISCSynonym>
                    <nciodm:CDISCDefinition>An epithelial neoplasm composed of malignant glandular and malignant squamous cells.</nciodm:CDISCDefinition>
                    <nciodm:PreferredTerm>Adenosquamous Carcinoma</nciodm:PreferredTerm>
                </EnumeratedItem>
                <EnumeratedItem CodedValue="CARCINOMA, ADNEXAL, MALIGNANT" nciodm:ExtCodeID="C3775">
                    <nciodm:CDISCSynonym>Carcinoma of Adnexa</nciodm:CDISCSynonym>
                    <nciodm:CDISCSynonym>Carcinoma of Skin Appendage</nciodm:CDISCSynonym>
                    <nciodm:CDISCSynonym>Skin Appendage Carcinoma</nciodm:CDISCSynonym>
                    <nciodm:CDISCDefinition>A malignant epithelial neoplasm arising from sebaceous or sweat glands or from hair follicles.</nciodm:CDISCDefinition>
                    <nciodm:PreferredTerm>Adnexal Carcinoma</nciodm:PreferredTerm>
                </EnumeratedItem>
                <EnumeratedItem CodedValue="CARCINOMA, ADRENOCORTICAL, MALIGNANT" nciodm:ExtCodeID="C9325">
                    <nciodm:CDISCSynonym>Adenocarcinoma, Adrenocortical, Malignant</nciodm:CDISCSynonym>
                    <nciodm:CDISCSynonym>Adrenal Cortex Adenocarcinoma</nciodm:CDISCSynonym>
                    <nciodm:CDISCSynonym>Adrenal Cortex Cancer</nciodm:CDISCSynonym>
                    <nciodm:CDISCSynonym>Adrenal Cortical Adenocarcinoma</nciodm:CDISCSynonym>
                    <nciodm:CDISCSynonym>Adrenal Cortical Carcinoma</nciodm:CDISCSynonym>
                    <nciodm:CDISCSynonym>Adrenocortical Carcinoma</nciodm:CDISCSynonym>
                    <nciodm:CDISCSynonym>Cortical Cell Carcinoma</nciodm:CDISCSynonym>
                    <nciodm:CDISCDefinition>A malignant epithelial neoplasm arising from adrenal cortical cells.</nciodm:CDISCDefinition>
                    <nciodm:PreferredTerm>Adrenal Cortex Carcinoma</nciodm:PreferredTerm>
                </EnumeratedItem>
                <EnumeratedItem CodedValue="CARCINOMA, BASAL CELL, MALIGNANT" nciodm:ExtCodeID="C111199">
                    <nciodm:CDISCSynonym>BCC</nciodm:CDISCSynonym>
                    <nciodm:CDISCSynonym>Basal Cell Cancer</nciodm:CDISCSynonym>
                    <nciodm:CDISCSynonym>Basal Cell Carcinoma</nciodm:CDISCSynonym>
                    <nciodm:CDISCSynonym>Basal Cell Epithelioma</nciodm:CDISCSynonym>
                    <nciodm:CDISCSynonym>Basal Cell Skin Carcinoma</nciodm:CDISCSynonym>
                    <nciodm:CDISCDefinition>A malignant epithelial neoplasm arising from basal cells.</nciodm:CDISCDefinition>
                    <nciodm:PreferredTerm>Experimental Organism Basal Cell Carcinoma</nciodm:PreferredTerm>
                </EnumeratedItem>
                <EnumeratedItem CodedValue="CARCINOMA, BRONCHIAL, MALIGNANT" nciodm:ExtCodeID="C35875">
                    <nciodm:CDISCDefinition>A malignant neoplasia of the lung, arising from bronchial epithelium.</nciodm:CDISCDefinition>
                    <nciodm:PreferredTerm>Bronchogenic Carcinoma</nciodm:PreferredTerm>
                </EnumeratedItem>
                <EnumeratedItem CodedValue="CARCINOMA, BRONCHIOLOALVEOLAR, MALIGNANT" nciodm:ExtCodeID="C2923">
                    <nciodm:CDISCSynonym>BAC</nciodm:CDISCSynonym>
                    <nciodm:CDISCSynonym>Bronchioalveolar Adenocarcinoma of Lung</nciodm:CDISCSynonym>
                    <nciodm:CDISCSynonym>Bronchioalveolar Adenocarcinoma of the Lung</nciodm:CDISCSynonym>
                    <nciodm:CDISCSynonym>Bronchioalveolar Lung Carcinoma</nciodm:CDISCSynonym>
                    <nciodm:CDISCSynonym>Bronchiolo-Alveolar Carcinoma of Lung</nciodm:CDISCSynonym>
                    <nciodm:CDISCSynonym>Bronchiolo-Alveolar Carcinoma of the Lung</nciodm:CDISCSynonym>
                    <nciodm:CDISCSynonym>Bronchiolo-Alveolar Lung Carcinoma</nciodm:CDISCSynonym>
                    <nciodm:CDISCSynonym>Bronchioloalveolar Adenocarcinoma of Lung</nciodm:CDISCSynonym>
                    <nciodm:CDISCSynonym>Bronchioloalveolar Adenocarcinoma of the Lung</nciodm:CDISCSynonym>
                    <nciodm:CDISCSynonym>Bronchioloalveolar Lung Adenocarcinoma</nciodm:CDISCSynonym>
                    <nciodm:CDISCDefinition>A malignant lung neoplasm originating from the alveolar/bronchiolar epithelium.</nciodm:CDISCDefinition>
                    <nciodm:PreferredTerm>Bronchioloalveolar Carcinoma</nciodm:PreferredTerm>
                </EnumeratedItem>
                <EnumeratedItem CodedValue="CARCINOMA, C-CELL, MALIGNANT" nciodm:ExtCodeID="C3879">
                    <nciodm:CDISCSynonym>C Cell Carcinoma</nciodm:CDISCSynonym>
                    <nciodm:CDISCSynonym>MTC</nciodm:CDISCSynonym>
                    <nciodm:CDISCSynonym>Medullary Carcinoma</nciodm:CDISCSynonym>
                    <nciodm:CDISCSynonym>Medullary Carcinoma of Thyroid</nciodm:CDISCSynonym>
                    <nciodm:CDISCSynonym>Medullary Carcinoma of Thyroid Gland</nciodm:CDISCSynonym>
                    <nciodm:CDISCSynonym>Medullary Carcinoma of the Thyroid</nciodm:CDISCSynonym>
                    <nciodm:CDISCSynonym>Medullary Carcinoma of the Thyroid Gland</nciodm:CDISCSynonym>
                    <nciodm:CDISCSynonym>Medullary Thyroid Cancer</nciodm:CDISCSynonym>
                    <nciodm:CDISCSynonym>Medullary Thyroid Carcinoma</nciodm:CDISCSynonym>
                    <nciodm:CDISCSynonym>Medullary Thyroid Gland Carcinoma</nciodm:CDISCSynonym>
                    <nciodm:CDISCSynonym>Parafollicular Cell Carcinoma</nciodm:CDISCSynonym>
                    <nciodm:CDISCSynonym>Thyroid Gland Neuroendocrine Carcinoma</nciodm:CDISCSynonym>
                    <nciodm:CDISCSynonym>Thyroid Medullary Carcinoma</nciodm:CDISCSynonym>
                    <nciodm:CDISCDefinition>A neuroendocrine malignant epithelial neoplasm arising from C-cells of the thyroid gland.</nciodm:CDISCDefinition>
                    <nciodm:PreferredTerm>Thyroid Gland Medullary Carcinoma</nciodm:PreferredTerm>
                </EnumeratedItem>
                <EnumeratedItem CodedValue="CARCINOMA, CERUMINOUS GLAND, MALIGNANT" nciodm:ExtCodeID="C4176">
                    <nciodm:CDISCDefinition>A malignant neoplasm derived from ceruminous glands in the external auditory canal.</nciodm:CDISCDefinition>
                    <nciodm:PreferredTerm>Ceruminous Adenocarcinoma</nciodm:PreferredTerm>
                </EnumeratedItem>
                <EnumeratedItem CodedValue="CARCINOMA, CHOROID PLEXUS, MALIGNANT" nciodm:ExtCodeID="C4715">
                    <nciodm:CDISCSynonym>Anaplastic Choroid Plexus Papilloma</nciodm:CDISCSynonym>
                    <nciodm:CDISCSynonym>Cancer of Choroid Plexus</nciodm:CDISCSynonym>
                    <nciodm:CDISCSynonym>Cancer of the Choroid Plexus</nciodm:CDISCSynonym>
                    <nciodm:CDISCSynonym>Carcinoma of Choroid Plexus</nciodm:CDISCSynonym>
                    <nciodm:CDISCSynonym>Carcinoma of the Choroid Plexus</nciodm:CDISCSynonym>
                    <nciodm:CDISCSynonym>Choroid Plexus Cancer</nciodm:CDISCSynonym>
                    <nciodm:CDISCDefinition>A malignant neoplasm arising from the choroid plexus of the brain.</nciodm:CDISCDefinition>
                    <nciodm:PreferredTerm>Choroid Plexus Carcinoma</nciodm:PreferredTerm>
                </EnumeratedItem>
                <EnumeratedItem CodedValue="CARCINOMA, EMBRYONAL, MALIGNANT" nciodm:ExtCodeID="C3752">
                    <nciodm:CDISCSynonym>Carcinoma, Embryonal, Malignant</nciodm:CDISCSynonym>
                    <nciodm:CDISCDefinition>A non-seminomatous malignant germ cell neoplasm of the testis or ovary.</nciodm:CDISCDefinition>
                    <nciodm:PreferredTerm>Embryonal Carcinoma</nciodm:PreferredTerm>
                </EnumeratedItem>
                <EnumeratedItem CodedValue="CARCINOMA, ENDOMETRIAL, MALIGNANT" nciodm:ExtCodeID="C7558">
                    <nciodm:CDISCSynonym>Carcinoma of Endometrium</nciodm:CDISCSynonym>
                    <nciodm:CDISCSynonym>Carcinoma of the Endometrium</nciodm:CDISCSynonym>
                    <nciodm:CDISCDefinition>A malignant epithelial neoplasm arising from the lining of the uterine body cavity.</nciodm:CDISCDefinition>
                    <nciodm:PreferredTerm>Endometrial Carcinoma</nciodm:PreferredTerm>
                </EnumeratedItem>
                <EnumeratedItem CodedValue="CARCINOMA, FOLLICULAR CELL, MALIGNANT" nciodm:ExtCodeID="C8054">
                    <nciodm:CDISCSynonym>Follicular Adenocarcinoma</nciodm:CDISCSynonym>
                    <nciodm:CDISCSynonym>Follicular Cancer of Thyroid</nciodm:CDISCSynonym>
                    <nciodm:CDISCSynonym>Follicular Cancer of Thyroid Gland</nciodm:CDISCSynonym>
                    <nciodm:CDISCSynonym>Follicular Cancer of the Thyroid</nciodm:CDISCSynonym>
                    <nciodm:CDISCSynonym>Follicular Cancer of the Thyroid Gland</nciodm:CDISCSynonym>
                    <nciodm:CDISCSynonym>Follicular Carcinoma</nciodm:CDISCSynonym>
                    <nciodm:CDISCSynonym>Follicular Carcinoma of Thyroid</nciodm:CDISCSynonym>
                    <nciodm:CDISCSynonym>Follicular Carcinoma of Thyroid Gland</nciodm:CDISCSynonym>
                    <nciodm:CDISCSynonym>Follicular Carcinoma of the Thyroid</nciodm:CDISCSynonym>
                    <nciodm:CDISCSynonym>Follicular Carcinoma of the Thyroid Gland</nciodm:CDISCSynonym>
                    <nciodm:CDISCSynonym>Follicular Thyroid Cancer</nciodm:CDISCSynonym>
                    <nciodm:CDISCSynonym>Follicular Thyroid Carcinoma</nciodm:CDISCSynonym>
                    <nciodm:CDISCSynonym>Follicular Thyroid Gland Carcinoma</nciodm:CDISCSynonym>
                    <nciodm:CDISCSynonym>Thyroid Follicular Carcinoma</nciodm:CDISCSynonym>
                    <nciodm:CDISCSynonym>Well-differentiated Follicular Adenocarcinoma</nciodm:CDISCSynonym>
                    <nciodm:CDISCSynonym>Well-differentiated Follicular Carcinoma</nciodm:CDISCSynonym>
                    <nciodm:CDISCDefinition>A malignant neoplasia arising from follicular cells of the thyroid gland.</nciodm:CDISCDefinition>
                    <nciodm:PreferredTerm>Thyroid Gland Follicular Carcinoma</nciodm:PreferredTerm>
                </EnumeratedItem>
                <EnumeratedItem CodedValue="CARCINOMA, HEPATOCELLULAR, MALIGNANT" nciodm:ExtCodeID="C3099">
                    <nciodm:CDISCSynonym>Carcinoma of Liver Cells</nciodm:CDISCSynonym>
                    <nciodm:CDISCSynonym>Carcinoma of the Liver Cells</nciodm:CDISCSynonym>
                    <nciodm:CDISCSynonym>HCC</nciodm:CDISCSynonym>
                    <nciodm:CDISCSynonym>Hepatoma</nciodm:CDISCSynonym>
                    <nciodm:CDISCSynonym>Liver Cell Carcinoma</nciodm:CDISCSynonym>
                    <nciodm:CDISCSynonym>Primary Carcinoma of Liver Cells</nciodm:CDISCSynonym>
                    <nciodm:CDISCSynonym>Primary Carcinoma of the Liver Cells</nciodm:CDISCSynonym>
                    <nciodm:CDISCDefinition>A malignant neoplasm arising from hepatocytes.</nciodm:CDISCDefinition>
                    <nciodm:PreferredTerm>Hepatocellular Carcinoma</nciodm:PreferredTerm>
                </EnumeratedItem>
                <EnumeratedItem CodedValue="CARCINOMA, HEPATOCHOLANGIOCELLULAR, MALIGNANT" nciodm:ExtCodeID="C103393">
                    <nciodm:CDISCSynonym>Hepatocholangiocellular Carcinoma</nciodm:CDISCSynonym>
                    <nciodm:CDISCDefinition>A malignant mixed neoplasm of the liver comprising neoplastic hepatocytes and bile duct epithelial cells; both elements displaying evidence of malignancy.</nciodm:CDISCDefinition>
                    <nciodm:PreferredTerm>Experimental Organism Malignant Hepatocholangiocellular Carcinoma</nciodm:PreferredTerm>
                </EnumeratedItem>
                <EnumeratedItem CodedValue="CARCINOMA, IN SITU, MALIGNANT" nciodm:ExtCodeID="C2917">
                    <nciodm:CDISCSynonym>CIS</nciodm:CDISCSynonym>
                    <nciodm:CDISCSynonym>Epithelial Tumor, In situ, Malignant</nciodm:CDISCSynonym>
                    <nciodm:CDISCSynonym>Intraepithelial Carcinoma</nciodm:CDISCSynonym>
                    <nciodm:CDISCSynonym>Non-invasive Carcinoma</nciodm:CDISCSynonym>
                    <nciodm:CDISCDefinition>A malignant epithelial neoplasm confined to the epithelial layer and without evidence of further tissue invasion.</nciodm:CDISCDefinition>
                    <nciodm:PreferredTerm>Carcinoma In Situ</nciodm:PreferredTerm>
                </EnumeratedItem>
                <EnumeratedItem CodedValue="CARCINOMA, ISLET CELL, MALIGNANT" nciodm:ExtCodeID="C3770">
                    <nciodm:CDISCSynonym>Islet Cell Cancer</nciodm:CDISCSynonym>
                    <nciodm:CDISCSynonym>Islet Cell Carcinoma</nciodm:CDISCSynonym>
                    <nciodm:CDISCSynonym>Malignant Islet Cell Tumor</nciodm:CDISCSynonym>
                    <nciodm:CDISCSynonym>Malignant Pancreatic Endocrine Tumor</nciodm:CDISCSynonym>
                    <nciodm:CDISCSynonym>Pancreatic Neuroendocrine Carcinoma</nciodm:CDISCSynonym>
                    <nciodm:CDISCDefinition>A malignant endocrine neoplasm arising from islets of Langerhans of the pancreas.</nciodm:CDISCDefinition>
                    <nciodm:PreferredTerm>Pancreatic Neuroendocrine Carcinoma</nciodm:PreferredTerm>
                </EnumeratedItem>
                <EnumeratedItem CodedValue="CARCINOMA, MALIGNANT" nciodm:ExtCodeID="C2916">
                    <nciodm:CDISCSynonym>Epithelial Carcinoma</nciodm:CDISCSynonym>
                    <nciodm:CDISCSynonym>Epithelioma Malignant</nciodm:CDISCSynonym>
                    <nciodm:CDISCSynonym>Malignant Epithelial Neoplasm</nciodm:CDISCSynonym>
                    <nciodm:CDISCSynonym>Malignant Epithelial Tumor</nciodm:CDISCSynonym>
                    <nciodm:CDISCSynonym>Malignant Epithelioma</nciodm:CDISCSynonym>
                    <nciodm:CDISCDefinition>A malignant epithelial neoplasm.</nciodm:CDISCDefinition>
                    <nciodm:PreferredTerm>Carcinoma</nciodm:PreferredTerm>
                </EnumeratedItem>
                <EnumeratedItem CodedValue="CARCINOMA, NEUROENDOCRINE CELL, MALIGNANT" nciodm:ExtCodeID="C3773">
                    <nciodm:CDISCSynonym>Neuroendocrine Carcinoma</nciodm:CDISCSynonym>
                    <nciodm:CDISCSynonym>Neuroendocrine Cell Carcinoma</nciodm:CDISCSynonym>
                    <nciodm:CDISCSynonym>Neuroendocrine Tumor, Malignant</nciodm:CDISCSynonym>
                    <nciodm:CDISCDefinition>A malignant neuroendocrine neoplasm comprising cells containing secretory granules.</nciodm:CDISCDefinition>
                    <nciodm:PreferredTerm>Neuroendocrine Carcinoma</nciodm:PreferredTerm>
                </EnumeratedItem>
                <EnumeratedItem CodedValue="CARCINOMA, PARS DISTALIS, MALIGNANT" nciodm:ExtCodeID="C60491">
                    <nciodm:CDISCSynonym>Rat Pars Distalis Carcinoma</nciodm:CDISCSynonym>
                    <nciodm:CDISCDefinition>A malignant epithelial neoplasm arising from the pars distalis of the pituitary gland.</nciodm:CDISCDefinition>
                    <nciodm:PreferredTerm>Rat Pars Distalis Carcinoma</nciodm:PreferredTerm>
                </EnumeratedItem>
                <EnumeratedItem CodedValue="CARCINOMA, PARS INTERMEDIA, MALIGNANT" nciodm:ExtCodeID="C92183">
                    <nciodm:CDISCSynonym>Rat Pars Intermedia Carcinoma</nciodm:CDISCSynonym>
                    <nciodm:CDISCDefinition>A malignant epithelial neoplasm arising from the pars intermedia of the pituitary gland.</nciodm:CDISCDefinition>
                    <nciodm:PreferredTerm>Rat Pars Intermedia Carcinoma</nciodm:PreferredTerm>
                </EnumeratedItem>
                <EnumeratedItem CodedValue="CARCINOMA, RENAL CELL, MALIGNANT" nciodm:ExtCodeID="C9385">
                    <nciodm:CDISCSynonym>Adenocarcinoma of Kidney</nciodm:CDISCSynonym>
                    <nciodm:CDISCSynonym>Adenocarcinoma of the Kidney</nciodm:CDISCSynonym>
                    <nciodm:CDISCSynonym>Kidney Adenocarcinoma</nciodm:CDISCSynonym>
                    <nciodm:CDISCSynonym>RCC</nciodm:CDISCSynonym>
                    <nciodm:CDISCSynonym>Renal Cell Adenocarcinoma</nciodm:CDISCSynonym>
                    <nciodm:CDISCSynonym>Renal Cell Cancer</nciodm:CDISCSynonym>
                    <nciodm:CDISCSynonym>Renal Cell Carcinoma, Stage Unspecified</nciodm:CDISCSynonym>
                    <nciodm:CDISCDefinition>A malignant neoplasm arising from renal parenchyma.</nciodm:CDISCDefinition>
                    <nciodm:PreferredTerm>Renal Cell Carcinoma</nciodm:PreferredTerm>
                </EnumeratedItem>
                <EnumeratedItem CodedValue="CARCINOMA, RENAL, TUBULAR, MALIGNANT" nciodm:ExtCodeID="C39807">
                    <nciodm:CDISCSynonym>Mucinous Tubular and Spindle Cell Carcinoma of the Kidney</nciodm:CDISCSynonym>
                    <nciodm:CDISCDefinition>A malignant neoplasm of the kidney, characterized by the presence of tubules.</nciodm:CDISCDefinition>
                    <nciodm:PreferredTerm>Mucinous Tubular and Spindle Cell Carcinoma of the Kidney</nciodm:PreferredTerm>
                </EnumeratedItem>
                <EnumeratedItem CodedValue="CARCINOMA, SPINDLE CELL, MALIGNANT" nciodm:ExtCodeID="C27004">
                    <nciodm:CDISCSynonym>Pseudosarcomatous Carcinoma</nciodm:CDISCSynonym>
                    <nciodm:CDISCSynonym>Spindle Cell Carcinoma</nciodm:CDISCSynonym>
                    <nciodm:CDISCDefinition>A malignant epithelial neoplasm characterized by the presence of spindle cells.</nciodm:CDISCDefinition>
                    <nciodm:PreferredTerm>Sarcomatoid Carcinoma</nciodm:PreferredTerm>
                </EnumeratedItem>
                <EnumeratedItem CodedValue="CARCINOMA, SQUAMOUS CELL, IN SITU, MALIGNANT" nciodm:ExtCodeID="C27093">
                    <nciodm:CDISCSynonym>Epidermoid Carcinoma In situ</nciodm:CDISCSynonym>
                    <nciodm:CDISCSynonym>Epidermoid Cell Carcinoma In situ</nciodm:CDISCSynonym>
                    <nciodm:CDISCSynonym>Grade 3 Squamous Intraepithelial Neoplasia</nciodm:CDISCSynonym>
                    <nciodm:CDISCSynonym>Grade III Squamous Intraepithelial Neoplasia</nciodm:CDISCSynonym>
                    <nciodm:CDISCSynonym>Intraepithelial Squamous Cell Carcinoma</nciodm:CDISCSynonym>
                    <nciodm:CDISCSynonym>Squamous Carcinoma In situ</nciodm:CDISCSynonym>
                    <nciodm:CDISCSynonym>Squamous Cell Carcinoma In situ</nciodm:CDISCSynonym>
                    <nciodm:CDISCDefinition>A malignant epithelial neoplasm confined to the squamous epithelium, without invasion of underlying tissues.</nciodm:CDISCDefinition>
                    <nciodm:PreferredTerm>Stage 0 Squamous Cell Carcinoma</nciodm:PreferredTerm>
                </EnumeratedItem>
                <EnumeratedItem CodedValue="CARCINOMA, SQUAMOUS CELL, MALIGNANT" nciodm:ExtCodeID="C2929">
                    <nciodm:CDISCSynonym>Epidermoid Carcinoma</nciodm:CDISCSynonym>
                    <nciodm:CDISCSynonym>Epidermoid Cell Cancer</nciodm:CDISCSynonym>
                    <nciodm:CDISCSynonym>Malignant Epidermoid Cell Neoplasm</nciodm:CDISCSynonym>
                    <nciodm:CDISCSynonym>Malignant Epidermoid Cell Tumor</nciodm:CDISCSynonym>
                    <nciodm:CDISCSynonym>Malignant Squamous Cell Neoplasm</nciodm:CDISCSynonym>
                    <nciodm:CDISCSynonym>Malignant Squamous Cell Tumor</nciodm:CDISCSynonym>
                    <nciodm:CDISCSynonym>Squamous Carcinoma</nciodm:CDISCSynonym>
                    <nciodm:CDISCSynonym>Squamous Cell Cancer</nciodm:CDISCSynonym>
                    <nciodm:CDISCSynonym>Squamous Cell Epithelioma</nciodm:CDISCSynonym>
                    <nciodm:CDISCDefinition>A malignant neoplasm arising from squamous epithelial cells.</nciodm:CDISCDefinition>
                    <nciodm:PreferredTerm>Squamous Cell Carcinoma</nciodm:PreferredTerm>
                </EnumeratedItem>
                <EnumeratedItem CodedValue="CARCINOMA, SWEAT GLAND, MALIGNANT" nciodm:ExtCodeID="C6938">
                    <nciodm:CDISCSynonym>Carcinoma of Sweat Gland</nciodm:CDISCSynonym>
                    <nciodm:CDISCSynonym>Carcinoma of the Sweat Gland</nciodm:CDISCSynonym>
                    <nciodm:CDISCDefinition>A malignant neoplasm arising from sweat glands.</nciodm:CDISCDefinition>
                    <nciodm:PreferredTerm>Sweat Gland Carcinoma</nciodm:PreferredTerm>
                </EnumeratedItem>
                <EnumeratedItem CodedValue="CARCINOMA, TRANSITIONAL CELL, MALIGNANT" nciodm:ExtCodeID="C2930">
                    <nciodm:CDISCSynonym>Transitional Carcinoma</nciodm:CDISCSynonym>
                    <nciodm:CDISCDefinition>A malignant neoplasm arising from transitional epithelium, usually affecting the urinary bladder, ureter, or renal pelvis.</nciodm:CDISCDefinition>
                    <nciodm:PreferredTerm>Transitional Cell Carcinoma</nciodm:PreferredTerm>
                </EnumeratedItem>
                <EnumeratedItem CodedValue="CARCINOMA, TUBULAR CELL, MALIGNANT" nciodm:ExtCodeID="C65192">
                    <nciodm:CDISCDefinition>A malignant glandular neoplasm exhibiting tubular structures.</nciodm:CDISCDefinition>
                    <nciodm:PreferredTerm>Tubular Adenocarcinoma</nciodm:PreferredTerm>
                </EnumeratedItem>
                <EnumeratedItem CodedValue="CARCINOMA, TUBULOSTROMAL, MALIGNANT" nciodm:ExtCodeID="C80356">
                    <nciodm:CDISCDefinition>A malignant epithelial neoplasm of the ovary with tubular and stromal neoplastic components.</nciodm:CDISCDefinition>
                    <nciodm:PreferredTerm>Tubulostromal Adenocarcinoma</nciodm:PreferredTerm>
                </EnumeratedItem>
                <EnumeratedItem CodedValue="CARCINOMA, UNDIFFERENTIATED, MALIGNANT" nciodm:ExtCodeID="C3692">
                    <nciodm:CDISCSynonym>Anaplastic Carcinoma</nciodm:CDISCSynonym>
                    <nciodm:CDISCSynonym>Carcinoma, Undifferentiated</nciodm:CDISCSynonym>
                    <nciodm:CDISCDefinition>A malignant epithelial neoplasm exhibiting poor differentiation (anaplasia).</nciodm:CDISCDefinition>
                    <nciodm:PreferredTerm>Undifferentiated Carcinoma</nciodm:PreferredTerm>
                </EnumeratedItem>
                <EnumeratedItem CodedValue="CARCINOMA, ZYMBAL'S GLAND" nciodm:ExtCodeID="C98801">
                    <nciodm:CDISCDefinition>A malignant neoplasm of the rodent Zymbal's gland with sebaceous and/or squamous differentiation.</nciodm:CDISCDefinition>
                    <nciodm:PreferredTerm>Zymbal's Gland Carcinoma</nciodm:PreferredTerm>
                </EnumeratedItem>
                <EnumeratedItem CodedValue="CARCINOSARCOMA, MALIGNANT" nciodm:ExtCodeID="C34448">
                    <nciodm:CDISCDefinition>A malignant neoplasm comprising a mixture of carcinomatous and sarcomatous elements.</nciodm:CDISCDefinition>
                    <nciodm:PreferredTerm>Carcinosarcoma</nciodm:PreferredTerm>
                </EnumeratedItem>
                <EnumeratedItem CodedValue="CARDIAC SCHWANNOMA, BENIGN" nciodm:ExtCodeID="C5358">
                    <nciodm:CDISCSynonym>Schwannoma, Endocardial, Benign</nciodm:CDISCSynonym>
                    <nciodm:CDISCDefinition>A benign peripheral nervous system neoplasm that is composed of well-differentiated Schwann cells and affects the heart.</nciodm:CDISCDefinition>
                    <nciodm:PreferredTerm>Benign Cardiac Schwannoma</nciodm:PreferredTerm>
                </EnumeratedItem>
                <EnumeratedItem CodedValue="CHEMODECTOMA, BENIGN" nciodm:ExtCodeID="C79950">
                    <nciodm:CDISCSynonym>Benign Chemodectoma</nciodm:CDISCSynonym>
                    <nciodm:CDISCDefinition>A benign neoplasm of the chemoreceptor system (e.g. carotid body, glomus jugulare, glomus vagale).</nciodm:CDISCDefinition>
                    <nciodm:PreferredTerm>Benign Carotid Body Paraganglioma</nciodm:PreferredTerm>
                </EnumeratedItem>
                <EnumeratedItem CodedValue="CHEMODECTOMA, MALIGNANT" nciodm:ExtCodeID="C3574">
                    <nciodm:CDISCSynonym>Malignant Carotid Body Neoplasm</nciodm:CDISCSynonym>
                    <nciodm:CDISCSynonym>Malignant Carotid Body Tumor</nciodm:CDISCSynonym>
                    <nciodm:CDISCSynonym>Malignant Neoplasm of Carotid Body</nciodm:CDISCSynonym>
                    <nciodm:CDISCSynonym>Malignant Neoplasm of the Carotid Body</nciodm:CDISCSynonym>
                    <nciodm:CDISCSynonym>Malignant Tumor of Carotid Body</nciodm:CDISCSynonym>
                    <nciodm:CDISCSynonym>Malignant Tumor of the Carotid Body</nciodm:CDISCSynonym>
                    <nciodm:CDISCDefinition>A malignant neoplasm of the chemoreceptor system (e.g. carotid body, glomus jugulare, glomus vagale).</nciodm:CDISCDefinition>
                    <nciodm:PreferredTerm>Malignant Carotid Body Paraganglioma</nciodm:PreferredTerm>
                </EnumeratedItem>
                <EnumeratedItem CodedValue="CHEMODECTOMA, UNDETERMINED" nciodm:ExtCodeID="C2932">
                    <nciodm:CDISCSynonym>Carotid Body Chemodectoma</nciodm:CDISCSynonym>
                    <nciodm:CDISCSynonym>Carotid Body Tumor</nciodm:CDISCSynonym>
                    <nciodm:CDISCSynonym>Chemodectoma</nciodm:CDISCSynonym>
                    <nciodm:CDISCSynonym>Paraganglioma of Carotid Body</nciodm:CDISCSynonym>
                    <nciodm:CDISCSynonym>Paraganglioma of the Carotid Body</nciodm:CDISCSynonym>
                    <nciodm:CDISCSynonym>Tumor of Carotid Body</nciodm:CDISCSynonym>
                    <nciodm:CDISCSynonym>Tumor of the Carotid Body</nciodm:CDISCSynonym>
                    <nciodm:CDISCDefinition>A neoplasm of the chemoreceptor system (e.g. carotid body, glomus jugulare, glomus vagale) for which the malignancy status has not be established.</nciodm:CDISCDefinition>
                    <nciodm:PreferredTerm>Carotid Body Paraganglioma</nciodm:PreferredTerm>
                </EnumeratedItem>
                <EnumeratedItem CodedValue="CHOLANGIOCARCINOMA, INTRAHEPATIC, MALIGNANT" nciodm:ExtCodeID="C35417">
                    <nciodm:CDISCSynonym>Intrahepatic Bile Duct Carcinoma</nciodm:CDISCSynonym>
                    <nciodm:CDISCSynonym>Intrahepatic Carcinoma of Bile Duct</nciodm:CDISCSynonym>
                    <nciodm:CDISCSynonym>Intrahepatic Carcinoma of the Bile Duct</nciodm:CDISCSynonym>
                    <nciodm:CDISCDefinition>A malignant neoplasm of the liver arising from/comprising cells resembling those of bile ducts.</nciodm:CDISCDefinition>
                    <nciodm:PreferredTerm>Intrahepatic Cholangiocarcinoma</nciodm:PreferredTerm>
                </EnumeratedItem>
                <EnumeratedItem CodedValue="CHOLANGIOCARCINOMA, MALIGNANT" nciodm:ExtCodeID="C4436">
                    <nciodm:CDISCSynonym>Cholangiocellular Carcinoma</nciodm:CDISCSynonym>
                    <nciodm:CDISCDefinition>A malignant neoplasm arising from/comprising cells resembling those of bile ducts.</nciodm:CDISCDefinition>
                    <nciodm:PreferredTerm>Cholangiocarcinoma</nciodm:PreferredTerm>
                </EnumeratedItem>
                <EnumeratedItem CodedValue="CHOLANGIOMA, BENIGN" nciodm:ExtCodeID="C2942">
                    <nciodm:CDISCSynonym>Adenoma of Bile Duct</nciodm:CDISCSynonym>
                    <nciodm:CDISCSynonym>Adenoma of the Bile Duct</nciodm:CDISCSynonym>
                    <nciodm:CDISCSynonym>Cholangioadenoma</nciodm:CDISCSynonym>
                    <nciodm:CDISCSynonym>Cholangioma</nciodm:CDISCSynonym>
                    <nciodm:CDISCSynonym>Hepatocholangiocellular Adenoma</nciodm:CDISCSynonym>
                    <nciodm:CDISCSynonym>Hepatocholangioma</nciodm:CDISCSynonym>
                    <nciodm:CDISCDefinition>A benign neoplasm arising from/comprising cells resembling those of bile ducts.</nciodm:CDISCDefinition>
                    <nciodm:PreferredTerm>Bile Duct Adenoma</nciodm:PreferredTerm>
                </EnumeratedItem>
                <EnumeratedItem CodedValue="CHONDROMA, BENIGN" nciodm:ExtCodeID="C53459">
                    <nciodm:CDISCDefinition>A benign, well circumscribed neoplasm arising from the hyaline cartilage in soft tissue or bone. It is characterized by the presence of chondrocytes.</nciodm:CDISCDefinition>
                    <nciodm:PreferredTerm>Chondroma</nciodm:PreferredTerm>
                </EnumeratedItem>
                <EnumeratedItem CodedValue="CHONDROSARCOMA, MALIGNANT" nciodm:ExtCodeID="C2946">
                    <nciodm:CDISCDefinition>A malignant mesenchymal neoplasm arising from cartilage-forming tissues.</nciodm:CDISCDefinition>
                    <nciodm:PreferredTerm>Chondrosarcoma</nciodm:PreferredTerm>
                </EnumeratedItem>
                <EnumeratedItem CodedValue="CHORDOMA, BENIGN" nciodm:ExtCodeID="C60334">
                    <nciodm:CDISCDefinition>A benign bone neoplasm arising from the remnants of the fetal notochord.</nciodm:CDISCDefinition>
                    <nciodm:PreferredTerm>Rat Benign Chordoma</nciodm:PreferredTerm>
                </EnumeratedItem>
                <EnumeratedItem CodedValue="CHORDOMA, MALIGNANT" nciodm:ExtCodeID="C2947">
                    <nciodm:CDISCDefinition>A malignant bone neoplasm arising from the remnants of the fetal notochord.</nciodm:CDISCDefinition>
                    <nciodm:PreferredTerm>Chordoma</nciodm:PreferredTerm>
                </EnumeratedItem>
                <EnumeratedItem CodedValue="CHORIOCARCINOMA, MALIGNANT" nciodm:ExtCodeID="C2948">
                    <nciodm:CDISCSynonym>Chorioepithelioma</nciodm:CDISCSynonym>
                    <nciodm:CDISCDefinition>A malignant neoplasm arising from placental trophoblast cells. They generally arise in the uterus.</nciodm:CDISCDefinition>
                    <nciodm:PreferredTerm>Choriocarcinoma</nciodm:PreferredTerm>
                </EnumeratedItem>
                <EnumeratedItem CodedValue="CONNECTIVE AND SOFT TISSUE NEOPLASM, BENIGN" nciodm:ExtCodeID="C53684">
                    <nciodm:CDISCSynonym>Benign Connective and Soft Tissue Neoplasm</nciodm:CDISCSynonym>
                    <nciodm:CDISCSynonym>Benign Connective and Soft Tissue Tumor</nciodm:CDISCSynonym>
                    <nciodm:CDISCSynonym>Benign Mesenchymal Cell Neoplasm</nciodm:CDISCSynonym>
                    <nciodm:CDISCSynonym>Benign Neoplasm of the Soft Tissue and Bone</nciodm:CDISCSynonym>
                    <nciodm:CDISCSynonym>Benign Tumor of the Soft Tissue and Bone</nciodm:CDISCSynonym>
                    <nciodm:CDISCDefinition>A benign neoplasm arising from connective and soft tissues that does not invade adjacent tissues or metastasize to other anatomic sites.</nciodm:CDISCDefinition>
                    <nciodm:PreferredTerm>Benign Connective and Soft Tissue Neoplasm</nciodm:PreferredTerm>
                </EnumeratedItem>
                <EnumeratedItem CodedValue="CRANIOPHARYNGIOMA, BENIGN" nciodm:ExtCodeID="C2964">
                    <nciodm:CDISCSynonym>Cystoma</nciodm:CDISCSynonym>
                    <nciodm:CDISCSynonym>Neoplasm of Rathke's Pouch</nciodm:CDISCSynonym>
                    <nciodm:CDISCSynonym>Rathke Pouch Neoplasm</nciodm:CDISCSynonym>
                    <nciodm:CDISCSynonym>Rathke Pouch Tumor</nciodm:CDISCSynonym>
                    <nciodm:CDISCSynonym>Rathke's Pouch Neoplasm</nciodm:CDISCSynonym>
                    <nciodm:CDISCSynonym>Rathke's Pouch Tumor</nciodm:CDISCSynonym>
                    <nciodm:CDISCSynonym>Tumor of Rathke's Pouch</nciodm:CDISCSynonym>
                    <nciodm:CDISCDefinition>A benign epithelial neoplasm of the sellar region, presumably derived from Rathke pouch epithelium.</nciodm:CDISCDefinition>
                    <nciodm:PreferredTerm>Craniopharyngioma</nciodm:PreferredTerm>
                </EnumeratedItem>
                <EnumeratedItem CodedValue="CRANIOPHARYNGIOMA, MALIGNANT" nciodm:ExtCodeID="C79949">
                    <nciodm:CDISCSynonym>Carcinoma Arising From Craniopharyngioma</nciodm:CDISCSynonym>
                    <nciodm:CDISCDefinition>A malignant epithelial neoplasm of the sellar region, presumably derived from Rathke pouch epithelium.</nciodm:CDISCDefinition>
                    <nciodm:PreferredTerm>Carcinoma Arising from Craniopharyngioma</nciodm:PreferredTerm>
                </EnumeratedItem>
                <EnumeratedItem CodedValue="CYSTADENOCARCINOMA, MALIGNANT" nciodm:ExtCodeID="C2971">
                    <nciodm:CDISCDefinition>A malignant cystic epithelial neoplasm arising from glandular epithelium.</nciodm:CDISCDefinition>
                    <nciodm:PreferredTerm>Cystadenocarcinoma</nciodm:PreferredTerm>
                </EnumeratedItem>
                <EnumeratedItem CodedValue="CYSTADENOCARCINOMA, PAPILLARY, MALIGNANT" nciodm:ExtCodeID="C3777">
                    <nciodm:CDISCDefinition>A malignant cystic epithelial neoplasm arising from glandular epithelium exhibiting papillary structures.</nciodm:CDISCDefinition>
                    <nciodm:PreferredTerm>Papillary Cystadenocarcinoma</nciodm:PreferredTerm>
                </EnumeratedItem>
                <EnumeratedItem CodedValue="CYSTADENOMA, BENIGN" nciodm:ExtCodeID="C2972">
                    <nciodm:CDISCSynonym>Cystoma</nciodm:CDISCSynonym>
                    <nciodm:CDISCDefinition>A benign cystic epithelial neoplasm arising from glandular epithelium.</nciodm:CDISCDefinition>
                    <nciodm:PreferredTerm>Cystadenoma</nciodm:PreferredTerm>
                </EnumeratedItem>
                <EnumeratedItem CodedValue="CYSTADENOMA, PAPILLARY, BENIGN" nciodm:ExtCodeID="C2974">
                    <nciodm:CDISCDefinition>A benign cystic epithelial neoplasm arising from glandular epithelium exhibiting papillary structures.</nciodm:CDISCDefinition>
                    <nciodm:PreferredTerm>Papillary Cystadenoma</nciodm:PreferredTerm>
                </EnumeratedItem>
                <EnumeratedItem CodedValue="DECIDUOMA, MALIGNANT" nciodm:ExtCodeID="C3555">
                    <nciodm:CDISCSynonym>Malignant Neoplasm of Placenta</nciodm:CDISCSynonym>
                    <nciodm:CDISCSynonym>Malignant Neoplasm of the Placenta</nciodm:CDISCSynonym>
                    <nciodm:CDISCSynonym>Malignant Placental Neoplasm</nciodm:CDISCSynonym>
                    <nciodm:CDISCSynonym>Malignant Placental Tumor</nciodm:CDISCSynonym>
                    <nciodm:CDISCSynonym>Malignant Tumor of Placenta</nciodm:CDISCSynonym>
                    <nciodm:CDISCSynonym>Malignant Tumor of the Placenta</nciodm:CDISCSynonym>
                    <nciodm:CDISCDefinition>A malignant neoplasm arising from decidua (placental) cells.</nciodm:CDISCDefinition>
                    <nciodm:PreferredTerm>Malignant Placental Neoplasm</nciodm:PreferredTerm>
                </EnumeratedItem>
                <EnumeratedItem CodedValue="DECIDUOMA, UNDETERMINED" nciodm:ExtCodeID="C4858">
                    <nciodm:CDISCSynonym>Neoplasm of Placenta</nciodm:CDISCSynonym>
                    <nciodm:CDISCSynonym>Neoplasm of the Placenta</nciodm:CDISCSynonym>
                    <nciodm:CDISCSynonym>Placenta Neoplasm</nciodm:CDISCSynonym>
                    <nciodm:CDISCSynonym>Placenta Neoplasms</nciodm:CDISCSynonym>
                    <nciodm:CDISCSynonym>Placenta Tumor</nciodm:CDISCSynonym>
                    <nciodm:CDISCSynonym>Placenta Tumors</nciodm:CDISCSynonym>
                    <nciodm:CDISCSynonym>Placental Tumor</nciodm:CDISCSynonym>
                    <nciodm:CDISCSynonym>Placental Tumors</nciodm:CDISCSynonym>
                    <nciodm:CDISCSynonym>Tumor Of the Placenta</nciodm:CDISCSynonym>
                    <nciodm:CDISCSynonym>Tumor of Placenta</nciodm:CDISCSynonym>
                    <nciodm:CDISCSynonym>Tumor of the Placenta</nciodm:CDISCSynonym>
                    <nciodm:CDISCDefinition>A neoplasm arising from decidua (placental) cells in which the malignancy status has not been established.</nciodm:CDISCDefinition>
                    <nciodm:PreferredTerm>Placental Neoplasm</nciodm:PreferredTerm>
                </EnumeratedItem>
                <EnumeratedItem CodedValue="DERMOID CYST, BENIGN" nciodm:ExtCodeID="C9011">
                    <nciodm:CDISCSynonym>Benign Cystic Teratoma</nciodm:CDISCSynonym>
                    <nciodm:CDISCSynonym>Dermoid</nciodm:CDISCSynonym>
                    <nciodm:CDISCSynonym>Mature Cystic Teratoma</nciodm:CDISCSynonym>
                    <nciodm:CDISCDefinition>A benign neoplasm comprised of a cyst, lined by mature epidermis-like tissue with dermal appendages.</nciodm:CDISCDefinition>
                    <nciodm:PreferredTerm>Dermoid Cyst</nciodm:PreferredTerm>
                </EnumeratedItem>
                <EnumeratedItem CodedValue="DYSGERMINOMA, MALIGNANT" nciodm:ExtCodeID="C2996">
                    <nciodm:CDISCDefinition>A malignant germ cell neoplasm characterized by the presence of a monotonous primitive germ cell population, primarily in the ovary.</nciodm:CDISCDefinition>
                    <nciodm:PreferredTerm>Dysgerminoma</nciodm:PreferredTerm>
                </EnumeratedItem>
                <EnumeratedItem CodedValue="EPENDYMOMA, ANAPLASTIC, MALIGNANT" nciodm:ExtCodeID="C4049">
                    <nciodm:CDISCSynonym>Anaplastic Ependymal Neoplasm</nciodm:CDISCSynonym>
                    <nciodm:CDISCSynonym>Anaplastic Ependymal Tumor</nciodm:CDISCSynonym>
                    <nciodm:CDISCSynonym>Malignant Ependymoma</nciodm:CDISCSynonym>
                    <nciodm:CDISCSynonym>Undifferentiated Ependymal Neoplasm</nciodm:CDISCSynonym>
                    <nciodm:CDISCSynonym>Undifferentiated Ependymal Tumor</nciodm:CDISCSynonym>
                    <nciodm:CDISCSynonym>Undifferentiated Ependymoma</nciodm:CDISCSynonym>
                    <nciodm:CDISCSynonym>Who Grade III Ependymal Neoplasm</nciodm:CDISCSynonym>
                    <nciodm:CDISCSynonym>Who Grade III Ependymal Tumor</nciodm:CDISCSynonym>
                    <nciodm:CDISCDefinition>A malignant neoplasm of ependymal origin with anaplastic cellular morphology.</nciodm:CDISCDefinition>
                    <nciodm:PreferredTerm>Anaplastic Ependymoma</nciodm:PreferredTerm>
                </EnumeratedItem>
                <EnumeratedItem CodedValue="EPENDYMOMA, BENIGN" nciodm:ExtCodeID="C3697">
                    <nciodm:CDISCDefinition>A benign neoplasm of ependymal origin.</nciodm:CDISCDefinition>
                    <nciodm:PreferredTerm>Myxopapillary Ependymoma</nciodm:PreferredTerm>
                </EnumeratedItem>
                <EnumeratedItem CodedValue="EPENDYMOMA, MALIGNANT" nciodm:ExtCodeID="C119575">
                    <nciodm:CDISCDefinition>A malignant neoplasm of ependymal origin.</nciodm:CDISCDefinition>
                    <nciodm:PreferredTerm>Experimental Organism Malignant Ependymoma</nciodm:PreferredTerm>
                </EnumeratedItem>
                <EnumeratedItem CodedValue="EPENDYMOMA, UNDETERMINED" nciodm:ExtCodeID="C3017">
                    <nciodm:CDISCSynonym>Who Grade II Ependymal Neoplasm</nciodm:CDISCSynonym>
                    <nciodm:CDISCSynonym>Who Grade II Ependymal Tumor</nciodm:CDISCSynonym>
                    <nciodm:CDISCDefinition>A neoplasm of ependymal origin, for which the malignancy status has not been established.</nciodm:CDISCDefinition>
                    <nciodm:PreferredTerm>Ependymoma</nciodm:PreferredTerm>
                </EnumeratedItem>
                <EnumeratedItem CodedValue="EPITHELIOMA, BENIGN" nciodm:ExtCodeID="C4092">
                    <nciodm:CDISCSynonym>Benign Epithelial Tumor</nciodm:CDISCSynonym>
                    <nciodm:CDISCSynonym>Benign Epithelioma</nciodm:CDISCSynonym>
                    <nciodm:CDISCSynonym>Benign Neoplasm of Epithelium</nciodm:CDISCSynonym>
                    <nciodm:CDISCSynonym>Benign Neoplasm of the Epithelium</nciodm:CDISCSynonym>
                    <nciodm:CDISCSynonym>Benign Tumor of Epithelium</nciodm:CDISCSynonym>
                    <nciodm:CDISCSynonym>Benign Tumor of the Epithelium</nciodm:CDISCSynonym>
                    <nciodm:CDISCDefinition>A benign neoplasm arising from epithelial cells of the skin.</nciodm:CDISCDefinition>
                    <nciodm:PreferredTerm>Benign Epithelial Neoplasm</nciodm:PreferredTerm>
                </EnumeratedItem>
                <EnumeratedItem CodedValue="EPITHELIOMA, CYSTIC KERATINIZING, BENIGN" nciodm:ExtCodeID="C80349">
                    <nciodm:CDISCDefinition>A benign cystic epithelial neoplasm featuring a central keratin mass surrounded by squamous epithelium.</nciodm:CDISCDefinition>
                    <nciodm:PreferredTerm>Cystic Keratinizing Epithelioma</nciodm:PreferredTerm>
                </EnumeratedItem>
                <EnumeratedItem CodedValue="EPITHELIOMA, NON-KERATINIZING, BENIGN" nciodm:ExtCodeID="C84356">
                    <nciodm:CDISCDefinition>A benign cystic epithelial neoplasm characterized by the absence of keratin production.</nciodm:CDISCDefinition>
                    <nciodm:PreferredTerm>Non-Keratinizing Epithelioma</nciodm:PreferredTerm>
                </EnumeratedItem>
                <EnumeratedItem CodedValue="FIBROADENOCARCINOMA, MALIGNANT" nciodm:ExtCodeID="C2928">
                    <nciodm:CDISCSynonym>Adenocarcinoma With Productive Fibrosis</nciodm:CDISCSynonym>
                    <nciodm:CDISCSynonym>Fibrocarcinoma</nciodm:CDISCSynonym>
                    <nciodm:CDISCSynonym>Scirrhous Carcinoma</nciodm:CDISCSynonym>
                    <nciodm:CDISCDefinition>A malignant neoplasm originating from glandular cells with a fibrous or fibroblastic component.</nciodm:CDISCDefinition>
                    <nciodm:PreferredTerm>Scirrhous Adenocarcinoma</nciodm:PreferredTerm>
                </EnumeratedItem>
                <EnumeratedItem CodedValue="FIBROADENOMA, BENIGN" nciodm:ExtCodeID="C3744">
                    <nciodm:CDISCSynonym>Breast Fibroadenoma</nciodm:CDISCSynonym>
                    <nciodm:CDISCSynonym>Fibroadenoma of Breast</nciodm:CDISCSynonym>
                    <nciodm:CDISCSynonym>Fibroadenoma of the Breast</nciodm:CDISCSynonym>
                    <nciodm:CDISCDefinition>A benign neoplasm originating from glandular cells with a fibrous or fibroblastic component.</nciodm:CDISCDefinition>
                    <nciodm:PreferredTerm>Fibroadenoma</nciodm:PreferredTerm>
                </EnumeratedItem>
                <EnumeratedItem CodedValue="FIBROLIPOMA, BENIGN" nciodm:ExtCodeID="C4249">
                    <nciodm:CDISCDefinition>A benign neoplasm comprising mature adipocytes, characterized by areas of abundant fibrous tissue.</nciodm:CDISCDefinition>
                    <nciodm:PreferredTerm>Fibrolipoma</nciodm:PreferredTerm>
                </EnumeratedItem>
                <EnumeratedItem CodedValue="FIBROMA, BENIGN" nciodm:ExtCodeID="C3041">
                    <nciodm:CDISCDefinition>A benign neoplasm arising from fibrous tissue.</nciodm:CDISCDefinition>
                    <nciodm:PreferredTerm>Fibroma</nciodm:PreferredTerm>
                </EnumeratedItem>
                <EnumeratedItem CodedValue="FIBROMA, ODONTOGENIC, BENIGN" nciodm:ExtCodeID="C4314">
                    <nciodm:CDISCSynonym>Central Odontogenic Fibroma</nciodm:CDISCSynonym>
                    <nciodm:CDISCDefinition>A benign intraosseous neoplasm arising from tooth-forming tissues in the mandible and maxilla, characterized by the presence of islands of odontogenic epithelium.</nciodm:CDISCDefinition>
                    <nciodm:PreferredTerm>Odontogenic Fibroma</nciodm:PreferredTerm>
                </EnumeratedItem>
                <EnumeratedItem CodedValue="FIBROMA, OSSIFYING, BENIGN" nciodm:ExtCodeID="C8422">
                    <nciodm:CDISCSynonym>Cementifying Fibroma</nciodm:CDISCSynonym>
                    <nciodm:CDISCSynonym>Cemento-Ossifying Fibroma</nciodm:CDISCSynonym>
                    <nciodm:CDISCSynonym>Ossifying Fibroma</nciodm:CDISCSynonym>
                    <nciodm:CDISCDefinition>A benign fibrous neoplasm characterized by a mineralized component (woven bone, lamellar bone, or cementum-like material).</nciodm:CDISCDefinition>
                    <nciodm:PreferredTerm>Ossifying Fibroma</nciodm:PreferredTerm>
                </EnumeratedItem>
                <EnumeratedItem CodedValue="FIBROMYXOMA, BENIGN" nciodm:ExtCodeID="C66760">
                    <nciodm:CDISCSynonym>Fibromyxoma</nciodm:CDISCSynonym>
                    <nciodm:CDISCDefinition>A benign soft-tissue neoplasm of uncertain lineage, characterized by the presence of neoplastic spindle-shaped to round cells and a fibromyxoid stroma.</nciodm:CDISCDefinition>
                    <nciodm:PreferredTerm>Fibromyxoid Tumor</nciodm:PreferredTerm>
                </EnumeratedItem>
                <EnumeratedItem CodedValue="FIBROPAPILLOMA, BENIGN" nciodm:ExtCodeID="C3337">
                    <nciodm:CDISCDefinition>A benign polypoid tumor comprising fibrous tissue and epithelium.</nciodm:CDISCDefinition>
                    <nciodm:PreferredTerm>Fibroepithelial Polyp</nciodm:PreferredTerm>
                </EnumeratedItem>
                <EnumeratedItem CodedValue="FIBROSARCOMA, MALIGNANT" nciodm:ExtCodeID="C3043">
                    <nciodm:CDISCDefinition>A malignant mesenchymal neoplasm of the soft tissue and bone.</nciodm:CDISCDefinition>
                    <nciodm:PreferredTerm>Fibrosarcoma</nciodm:PreferredTerm>
                </EnumeratedItem>
                <EnumeratedItem CodedValue="GANGLIOGLIOMA, BENIGN" nciodm:ExtCodeID="C119576">
                    <nciodm:CDISCDefinition>A benign neoplasm comprised of ganglion and glial cells.</nciodm:CDISCDefinition>
                    <nciodm:PreferredTerm>Experimental Organism Benign Ganglioglioma</nciodm:PreferredTerm>
                </EnumeratedItem>
                <EnumeratedItem CodedValue="GANGLIOGLIOMA, UNDETERMINED" nciodm:ExtCodeID="C3788">
                    <nciodm:CDISCDefinition>A neuroepithelial neoplasm comprised of neoplastic ganglion cells and neoplastic glial cells, in which the malignancy status has not been established.</nciodm:CDISCDefinition>
                    <nciodm:PreferredTerm>Ganglioglioma</nciodm:PreferredTerm>
                </EnumeratedItem>
                <EnumeratedItem CodedValue="GANGLIONEUROBLASTOMA, MALIGNANT" nciodm:ExtCodeID="C3790">
                    <nciodm:CDISCDefinition>A malignant neoplasm characterized by the presence of neuroblastic and ganglion cells and a stroma with Schwannian differentiation.</nciodm:CDISCDefinition>
                    <nciodm:PreferredTerm>Ganglioneuroblastoma</nciodm:PreferredTerm>
                </EnumeratedItem>
                <EnumeratedItem CodedValue="GANGLIONEUROMA, BENIGN" nciodm:ExtCodeID="C3049">
                    <nciodm:CDISCSynonym>Neural Crest Tumor, Benign</nciodm:CDISCSynonym>
                    <nciodm:CDISCDefinition>A benign neoplasm characterized by the presence of ganglion cells and spindle cell proliferation, located primarily in the brain, ganglia, or adrenal medulla.</nciodm:CDISCDefinition>
                    <nciodm:PreferredTerm>Ganglioneuroma</nciodm:PreferredTerm>
                </EnumeratedItem>
                <EnumeratedItem CodedValue="GIANT CELL TUMOR, BENIGN" nciodm:ExtCodeID="C27477">
                    <nciodm:CDISCSynonym>Benign Bone Giant Cell Tumor</nciodm:CDISCSynonym>
                    <nciodm:CDISCSynonym>Osteoclastoma, Benign</nciodm:CDISCSynonym>
                    <nciodm:CDISCDefinition>A benign neoplasm of bone comprised of giant cells (osteoclast-like) and mononuclear cells.</nciodm:CDISCDefinition>
                    <nciodm:PreferredTerm>Benign Osteoclastic Giant Cell-Rich Tumor of Bone</nciodm:PreferredTerm>
                </EnumeratedItem>
                <EnumeratedItem CodedValue="GIANT CELL TUMOR, MALIGNANT" nciodm:ExtCodeID="C4090">
                    <nciodm:CDISCSynonym>Malignant Giant Cell Tumor</nciodm:CDISCSynonym>
                    <nciodm:CDISCDefinition>A malignant neoplasm of bone comprised of giant cells (osteoclast-like) and mononuclear cells.</nciodm:CDISCDefinition>
                    <nciodm:PreferredTerm>Malignant Giant Cell Neoplasm</nciodm:PreferredTerm>
                </EnumeratedItem>
                <EnumeratedItem CodedValue="GIANT CELL TUMOR, UNDETERMINED" nciodm:ExtCodeID="C3055">
                    <nciodm:CDISCSynonym>Tumor of Giant Cell</nciodm:CDISCSynonym>
                    <nciodm:CDISCSynonym>Tumor of the Giant Cell</nciodm:CDISCSynonym>
                    <nciodm:CDISCDefinition>A neoplasm of bone comprised of giant cells (osteoclast-like) and mononuclear cells, for which the malignancy status has not been established.</nciodm:CDISCDefinition>
                    <nciodm:PreferredTerm>Giant Cell Tumor</nciodm:PreferredTerm>
                </EnumeratedItem>
                <EnumeratedItem CodedValue="GLIOMA, MALIGNANT" nciodm:ExtCodeID="C4822">
                    <nciodm:CDISCSynonym>Malignant Glial Neoplasm</nciodm:CDISCSynonym>
                    <nciodm:CDISCSynonym>Malignant Glial Tumor</nciodm:CDISCSynonym>
                    <nciodm:CDISCSynonym>Malignant Neuroglial Neoplasm</nciodm:CDISCSynonym>
                    <nciodm:CDISCSynonym>Malignant Neuroglial Tumor</nciodm:CDISCSynonym>
                    <nciodm:CDISCDefinition>A malignant neuroglial neoplasm. The term can apply to several primary neoplasm of the brain and spinal cord, including astrocytoma and oligodendroglioma in addition to others.</nciodm:CDISCDefinition>
                    <nciodm:PreferredTerm>Malignant Glioma</nciodm:PreferredTerm>
                </EnumeratedItem>
                <EnumeratedItem CodedValue="GLIOMA, MIXED, MALIGNANT" nciodm:ExtCodeID="C3903">
                    <nciodm:CDISCSynonym>Glioma, Mixed</nciodm:CDISCSynonym>
                    <nciodm:CDISCSynonym>Mixed Glial Neoplasm</nciodm:CDISCSynonym>
                    <nciodm:CDISCSynonym>Mixed Glial Tumor</nciodm:CDISCSynonym>
                    <nciodm:CDISCSynonym>Mixed Neuroglial Neoplasm</nciodm:CDISCSynonym>
                    <nciodm:CDISCSynonym>Mixed Neuroglial Tumor</nciodm:CDISCSynonym>
                    <nciodm:CDISCDefinition>A malignant neoplasm comprising two or more glial cell types (e.g., astrocytes, ependymal cells, oligodendrocytes).</nciodm:CDISCDefinition>
                    <nciodm:PreferredTerm>Mixed Glioma</nciodm:PreferredTerm>
                </EnumeratedItem>
                <EnumeratedItem CodedValue="GRANULAR CELL TUMOR, BENIGN" nciodm:ExtCodeID="C3252">
                    <nciodm:CDISCSynonym>Benign Granular Cell Myoblastoma</nciodm:CDISCSynonym>
                    <nciodm:CDISCSynonym>Benign Granular Cell Neoplasm</nciodm:CDISCSynonym>
                    <nciodm:CDISCSynonym>Benign Granular Cell Tumor</nciodm:CDISCSynonym>
                    <nciodm:CDISCSynonym>Myoblastoma</nciodm:CDISCSynonym>
                    <nciodm:CDISCDefinition>A benign neoplasm, comprised of large cells with cytoplasmatic granules, occurring in various organs/tissues.</nciodm:CDISCDefinition>
                    <nciodm:PreferredTerm>Benign Granular Cell Tumor</nciodm:PreferredTerm>
                </EnumeratedItem>
                <EnumeratedItem CodedValue="GRANULAR CELL TUMOR, MALIGNANT" nciodm:ExtCodeID="C4336">
                    <nciodm:CDISCSynonym>Malignant Granular Cell Myoblastoma</nciodm:CDISCSynonym>
                    <nciodm:CDISCSynonym>Malignant Granular Cell Neoplasm</nciodm:CDISCSynonym>
                    <nciodm:CDISCSynonym>Myoblastoma, Malignant</nciodm:CDISCSynonym>
                    <nciodm:CDISCDefinition>A malignant neoplasm, comprised of large cells with cytoplasmatic granules, occurring in various organs/tissues.</nciodm:CDISCDefinition>
                    <nciodm:PreferredTerm>Malignant Granular Cell Tumor</nciodm:PreferredTerm>
                </EnumeratedItem>
                <EnumeratedItem CodedValue="GRANULOSA CELL TUMOR, BENIGN" nciodm:ExtCodeID="C60340">
                    <nciodm:CDISCDefinition>A benign neoplasm of the ovary, originating from granulosa cells.</nciodm:CDISCDefinition>
                    <nciodm:PreferredTerm>Rat Benign Granulosa Cell Tumor</nciodm:PreferredTerm>
                </EnumeratedItem>
                <EnumeratedItem CodedValue="GRANULOSA CELL TUMOR, MALIGNANT" nciodm:ExtCodeID="C4205">
                    <nciodm:CDISCSynonym>Malignant Granulosa Cell Tumor</nciodm:CDISCSynonym>
                    <nciodm:CDISCDefinition>A malignant neoplasm of the ovary, originating from granulosa cells.</nciodm:CDISCDefinition>
                    <nciodm:PreferredTerm>Malignant Granulosa Cell Tumor</nciodm:PreferredTerm>
                </EnumeratedItem>
                <EnumeratedItem CodedValue="GRANULOSA CELL TUMOR, UNDETERMINED" nciodm:ExtCodeID="C3070">
                    <nciodm:CDISCSynonym>Granulosa Cell Neoplasm</nciodm:CDISCSynonym>
                    <nciodm:CDISCDefinition>A neoplasm of the ovary (or testis), originating from granulosa cells for which the malignancy status has not been established.</nciodm:CDISCDefinition>
                    <nciodm:PreferredTerm>Granulosa Cell Tumor</nciodm:PreferredTerm>
                </EnumeratedItem>
                <EnumeratedItem CodedValue="HAIR FOLLICLE NEOPLASM, BENIGN" nciodm:ExtCodeID="C27520">
                    <nciodm:CDISCSynonym>Benign Follicular Neoplasm</nciodm:CDISCSynonym>
                    <nciodm:CDISCSynonym>Benign Follicular Tumor</nciodm:CDISCSynonym>
                    <nciodm:CDISCSynonym>Benign Hair Follicle Tumor</nciodm:CDISCSynonym>
                    <nciodm:CDISCDefinition>A benign neoplasm that arises from the hair follicle.</nciodm:CDISCDefinition>
                    <nciodm:PreferredTerm>Benign Hair Follicle Neoplasm</nciodm:PreferredTerm>
                </EnumeratedItem>
                <EnumeratedItem CodedValue="HAIR FOLLICLE NEOPLASM, MALIGNANT" nciodm:ExtCodeID="C43310">
                    <nciodm:CDISCSynonym>Malignant Hair Follicle Tumor</nciodm:CDISCSynonym>
                    <nciodm:CDISCDefinition>A malignant neoplasm that arises from the hair follicle.</nciodm:CDISCDefinition>
                    <nciodm:PreferredTerm>Malignant Hair Follicle Neoplasm</nciodm:PreferredTerm>
                </EnumeratedItem>
                <EnumeratedItem CodedValue="HAIR FOLLICLE NEOPLASM, UNDETERMINED" nciodm:ExtCodeID="C7367">
                    <nciodm:CDISCSynonym>Hair Follicle Tumor</nciodm:CDISCSynonym>
                    <nciodm:CDISCSynonym>Hair Matrix Neoplasm</nciodm:CDISCSynonym>
                    <nciodm:CDISCSynonym>Hair Matrix Tumor</nciodm:CDISCSynonym>
                    <nciodm:CDISCSynonym>Neoplasm of Hair Follicle</nciodm:CDISCSynonym>
                    <nciodm:CDISCSynonym>Neoplasm of the Hair Follicle</nciodm:CDISCSynonym>
                    <nciodm:CDISCDefinition>A neoplasm that arises from the hair follicle, for which the malignancy status has not been established.</nciodm:CDISCDefinition>
                    <nciodm:PreferredTerm>Hair Follicle Neoplasm</nciodm:PreferredTerm>
                </EnumeratedItem>
                <EnumeratedItem CodedValue="HEMANGIOMA, BENIGN" nciodm:ExtCodeID="C3085">
                    <nciodm:CDISCSynonym>Angioma</nciodm:CDISCSynonym>
                    <nciodm:CDISCSynonym>Benign Angioma</nciodm:CDISCSynonym>
                    <nciodm:CDISCSynonym>Benign Hemangioma</nciodm:CDISCSynonym>
                    <nciodm:CDISCDefinition>A benign vascular neoplasm characterized by the formation of capillary-sized or cavernous vascular channels.</nciodm:CDISCDefinition>
                    <nciodm:PreferredTerm>Hemangioma</nciodm:PreferredTerm>
                </EnumeratedItem>
                <EnumeratedItem CodedValue="HEMANGIOPERICYTOMA, BENIGN" nciodm:ExtCodeID="C4300">
                    <nciodm:CDISCDefinition>A benign neoplasm originating from vascular pericytes (cells in the periphery of vessels).</nciodm:CDISCDefinition>
                    <nciodm:PreferredTerm>Benign Hemangiopericytoma</nciodm:PreferredTerm>
                </EnumeratedItem>
                <EnumeratedItem CodedValue="HEMANGIOPERICYTOMA, MALIGNANT" nciodm:ExtCodeID="C4301">
                    <nciodm:CDISCSynonym>Malignant Hemangiopericytoma NOS</nciodm:CDISCSynonym>
                    <nciodm:CDISCDefinition>A malignant neoplasm originating from vascular pericytes (cells in the periphery of vessels).</nciodm:CDISCDefinition>
                    <nciodm:PreferredTerm>Malignant Hemangiopericytoma</nciodm:PreferredTerm>
                </EnumeratedItem>
                <EnumeratedItem CodedValue="HEMANGIOPERICYTOMA, UNDETERMINED" nciodm:ExtCodeID="C3087">
                    <nciodm:CDISCDefinition>A neoplasm originating from vascular pericytes (cells in the periphery of vessels), for which the malignancy status has not been established.</nciodm:CDISCDefinition>
                    <nciodm:PreferredTerm>Hemangiopericytoma</nciodm:PreferredTerm>
                </EnumeratedItem>
                <EnumeratedItem CodedValue="HEMANGIOSARCOMA, MALIGNANT" nciodm:ExtCodeID="C3088">
                    <nciodm:CDISCSynonym>Hemangiosarcoma</nciodm:CDISCSynonym>
                    <nciodm:CDISCDefinition>A malignant vascular neoplasm arising from endothelial cells.</nciodm:CDISCDefinition>
                    <nciodm:PreferredTerm>Angiosarcoma</nciodm:PreferredTerm>
                </EnumeratedItem>
                <EnumeratedItem CodedValue="HEPATOBLASTOMA, MALIGNANT" nciodm:ExtCodeID="C3728">
                    <nciodm:CDISCSynonym>HBL</nciodm:CDISCSynonym>
                    <nciodm:CDISCSynonym>Pediatric Embryonal Hepatoma</nciodm:CDISCSynonym>
                    <nciodm:CDISCSynonym>Pediatric Hepatoblastoma</nciodm:CDISCSynonym>
                    <nciodm:CDISCDefinition>A malignant liver neoplasm composed of immature hepatocytic elements.</nciodm:CDISCDefinition>
                    <nciodm:PreferredTerm>Hepatoblastoma</nciodm:PreferredTerm>
                </EnumeratedItem>
                <EnumeratedItem CodedValue="HIBERNOMA, BENIGN" nciodm:ExtCodeID="C3702">
                    <nciodm:CDISCSynonym>Brown Fat Neoplasm</nciodm:CDISCSynonym>
                    <nciodm:CDISCSynonym>Brown Fat Tumor</nciodm:CDISCSynonym>
                    <nciodm:CDISCSynonym>Fetal Fat Cell Lipoma</nciodm:CDISCSynonym>
                    <nciodm:CDISCDefinition>A benign neoplasm of the brown adipose tissue.</nciodm:CDISCDefinition>
                    <nciodm:PreferredTerm>Hibernoma</nciodm:PreferredTerm>
                </EnumeratedItem>
                <EnumeratedItem CodedValue="HIBERNOMA, MALIGNANT" nciodm:ExtCodeID="C103394">
                    <nciodm:CDISCSynonym>Malignant Hibernoma</nciodm:CDISCSynonym>
                    <nciodm:CDISCDefinition>A malignant neoplasm arising from the brown adipose tissue in animals, usually in the subcutis and the thoracic cavity.</nciodm:CDISCDefinition>
                    <nciodm:PreferredTerm>Experimental Organism Malignant Hibernoma</nciodm:PreferredTerm>
                </EnumeratedItem>
                <EnumeratedItem CodedValue="HISTIOCYTOMA, BENIGN" nciodm:ExtCodeID="C98708">
                    <nciodm:CDISCDefinition>A benign dermal neoplasm comprising of round cells, resembling histiocytes. The tumor commonly occurs in young dogs and may regress spontaneously.</nciodm:CDISCDefinition>
                    <nciodm:PreferredTerm>Benign Histiocytoma</nciodm:PreferredTerm>
                </EnumeratedItem>
                <EnumeratedItem CodedValue="HISTIOCYTOMA, FIBROUS, BENIGN" nciodm:ExtCodeID="C3739">
                    <nciodm:CDISCSynonym>Fibrous Histiocytoma</nciodm:CDISCSynonym>
                    <nciodm:CDISCDefinition>A benign neoplasm composed of a fibroblastic and a histiocytic component.</nciodm:CDISCDefinition>
                    <nciodm:PreferredTerm>Benign Fibrous Histiocytoma</nciodm:PreferredTerm>
                </EnumeratedItem>
                <EnumeratedItem CodedValue="HISTIOCYTOMA, FIBROUS, MALIGNANT" nciodm:ExtCodeID="C4247">
                    <nciodm:CDISCSynonym>Fibroxanthosarcoma</nciodm:CDISCSynonym>
                    <nciodm:CDISCSynonym>MFH</nciodm:CDISCSynonym>
                    <nciodm:CDISCSynonym>Malignant Fibrous Histiocytoma of Soft Tissue and Bone</nciodm:CDISCSynonym>
                    <nciodm:CDISCSynonym>Malignant Fibrous Histiocytoma of the Soft Tissue and Bone</nciodm:CDISCSynonym>
                    <nciodm:CDISCSynonym>Malignant Fibroxanthoma</nciodm:CDISCSynonym>
                    <nciodm:CDISCDefinition>A malignant neoplasm composed of a fibroblastic and a histiocytic component.</nciodm:CDISCDefinition>
                    <nciodm:PreferredTerm>Undifferentiated Pleomorphic Sarcoma</nciodm:PreferredTerm>
                </EnumeratedItem>
                <EnumeratedItem CodedValue="HISTIOCYTOMA, FIBROUS, UNDETERMINED" nciodm:ExtCodeID="C8402">
                    <nciodm:CDISCSynonym>Fibrohistiocytic Tumor</nciodm:CDISCSynonym>
                    <nciodm:CDISCDefinition>A neoplasm composed of a fibroblastic and a histiocytic component, for which the malignancy status has not been established.</nciodm:CDISCDefinition>
                    <nciodm:PreferredTerm>Fibrohistiocytic Neoplasm</nciodm:PreferredTerm>
                </EnumeratedItem>
                <EnumeratedItem CodedValue="HISTIOCYTOMA, UNDETERMINED" nciodm:ExtCodeID="C35765">
                    <nciodm:CDISCDefinition>A neoplasm composed of histiocytic cells, for which the malignancy status has not been established.</nciodm:CDISCDefinition>
                    <nciodm:PreferredTerm>Histiocytoma</nciodm:PreferredTerm>
                </EnumeratedItem>
                <EnumeratedItem CodedValue="ITO CELL TUMOR, BENIGN" nciodm:ExtCodeID="C80351">
                    <nciodm:CDISCSynonym>Benign Spongiotic Pericytoma</nciodm:CDISCSynonym>
                    <nciodm:CDISCDefinition>A benign neoplasm of the liver composed of hepatic stellate cells (Ito cells).</nciodm:CDISCDefinition>
                    <nciodm:PreferredTerm>Benign Ito Cell Tumor</nciodm:PreferredTerm>
                </EnumeratedItem>
                <EnumeratedItem CodedValue="ITO CELL TUMOR, MALIGNANT" nciodm:ExtCodeID="C80352">
                    <nciodm:CDISCSynonym>Malignant Spongiotic Pericytoma</nciodm:CDISCSynonym>
                    <nciodm:CDISCDefinition>A malignant neoplasm of the liver composed of hepatic stellate cells (Ito cells).</nciodm:CDISCDefinition>
                    <nciodm:PreferredTerm>Malignant Ito Cell Tumor</nciodm:PreferredTerm>
                </EnumeratedItem>
                <EnumeratedItem CodedValue="KERATOACANTHOMA, BENIGN" nciodm:ExtCodeID="C117977">
                    <nciodm:CDISCDefinition>A benign neoplasm in the superficial dermis with direct association to the epidermis, composed of well differentiated squamous epithelium and a central cavity filled with concentric layers of keratin; a pore (opening in the epidermis) may be present.</nciodm:CDISCDefinition>
                    <nciodm:PreferredTerm>Experimental Organism Benign Keratoacanthoma</nciodm:PreferredTerm>
                </EnumeratedItem>
                <EnumeratedItem CodedValue="KERATOACANTHOMA, UNDETERMINED" nciodm:ExtCodeID="C3146">
                    <nciodm:CDISCDefinition>An epithelial skin neoplasm, composed of squamous cells, for which the malignancy status has not been established.</nciodm:CDISCDefinition>
                    <nciodm:PreferredTerm>Keratoacanthoma</nciodm:PreferredTerm>
                </EnumeratedItem>
                <EnumeratedItem CodedValue="LEIOMYOBLASTOMA, BENIGN" nciodm:ExtCodeID="C81854">
                    <nciodm:CDISCDefinition>A benign neoplasm of the gastro-intestinal tract, originating from smooth muscle cells.</nciodm:CDISCDefinition>
                    <nciodm:PreferredTerm>Benign Epithelioid Cell Type Gastrointestinal Stromal Tumor</nciodm:PreferredTerm>
                </EnumeratedItem>
                <EnumeratedItem CodedValue="LEIOMYOBLASTOMA, MALIGNANT" nciodm:ExtCodeID="C81855">
                    <nciodm:CDISCDefinition>A malignant neoplasm of the gastro-intestinal tract, originating from smooth muscle cells.</nciodm:CDISCDefinition>
                    <nciodm:PreferredTerm>Malignant Epithelioid Cell Type Gastrointestinal Stromal Tumor</nciodm:PreferredTerm>
                </EnumeratedItem>
                <EnumeratedItem CodedValue="LEIOMYOBLASTOMA, UNDETERMINED" nciodm:ExtCodeID="C3486">
                    <nciodm:CDISCSynonym>Epithelioid Cell Type GIST</nciodm:CDISCSynonym>
                    <nciodm:CDISCSynonym>Leiomyoblastoma</nciodm:CDISCSynonym>
                    <nciodm:CDISCSynonym>Stout's Leiomyoblastoma</nciodm:CDISCSynonym>
                    <nciodm:CDISCDefinition>A neoplasm of the gastro-intestinal tract, originating from smooth muscle cells, for which the malignancy status has not been established.</nciodm:CDISCDefinition>
                    <nciodm:PreferredTerm>Epithelioid Cell Type Gastrointestinal Stromal Tumor</nciodm:PreferredTerm>
                </EnumeratedItem>
                <EnumeratedItem CodedValue="LEIOMYOMA, BENIGN" nciodm:ExtCodeID="C3157">
                    <nciodm:CDISCSynonym>Fibroid</nciodm:CDISCSynonym>
                    <nciodm:CDISCSynonym>Fibroid Neoplasm</nciodm:CDISCSynonym>
                    <nciodm:CDISCSynonym>Fibroid Tumor</nciodm:CDISCSynonym>
                    <nciodm:CDISCSynonym>Leiomyomatous Neoplasm</nciodm:CDISCSynonym>
                    <nciodm:CDISCSynonym>Leiomyomatous Tumor</nciodm:CDISCSynonym>
                    <nciodm:CDISCDefinition>A benign neoplasm, originating from smooth muscle cells.</nciodm:CDISCDefinition>
                    <nciodm:PreferredTerm>Leiomyoma</nciodm:PreferredTerm>
                </EnumeratedItem>
                <EnumeratedItem CodedValue="LEIOMYOSARCOMA, MALIGNANT" nciodm:ExtCodeID="C3158">
                    <nciodm:CDISCSynonym>Leiomyosarcomas</nciodm:CDISCSynonym>
                    <nciodm:CDISCDefinition>A malignant neoplasm, originating from smooth muscle cells.</nciodm:CDISCDefinition>
                    <nciodm:PreferredTerm>Leiomyosarcoma</nciodm:PreferredTerm>
                </EnumeratedItem>
                <EnumeratedItem CodedValue="LEUKEMIA, ERYTHROID, MALIGNANT" nciodm:ExtCodeID="C8923">
                    <nciodm:CDISCSynonym>Acute Erythroblastic Leukemia</nciodm:CDISCSynonym>
                    <nciodm:CDISCSynonym>Erythroblastic Leukemia</nciodm:CDISCSynonym>
                    <nciodm:CDISCSynonym>Fab M6</nciodm:CDISCSynonym>
                    <nciodm:CDISCSynonym>M6 Acute Myeloid Leukemia</nciodm:CDISCSynonym>
                    <nciodm:CDISCDefinition>A progressive, proliferative disease of blood cells, originating from immature erythroid cells.</nciodm:CDISCDefinition>
                    <nciodm:PreferredTerm>Acute Erythroid Leukemia</nciodm:PreferredTerm>
                </EnumeratedItem>
                <EnumeratedItem CodedValue="LEUKEMIA, GRANULOCYTIC, MALIGNANT" nciodm:ExtCodeID="C3172">
                    <nciodm:CDISCSynonym>Leukemia Granulocytic</nciodm:CDISCSynonym>
                    <nciodm:CDISCSynonym>Leukemia Myeloid</nciodm:CDISCSynonym>
                    <nciodm:CDISCSynonym>Myelocytic Leukemia</nciodm:CDISCSynonym>
                    <nciodm:CDISCSynonym>Myelogenous Leukemia</nciodm:CDISCSynonym>
                    <nciodm:CDISCSynonym>Non-lymphoblastic Leukemia</nciodm:CDISCSynonym>
                    <nciodm:CDISCSynonym>Non-lymphocytic Leukemia</nciodm:CDISCSynonym>
                    <nciodm:CDISCDefinition>A progressive, proliferative disease of blood cells, originating from immature granulocytes.</nciodm:CDISCDefinition>
                    <nciodm:PreferredTerm>Myeloid Leukemia</nciodm:PreferredTerm>
                </EnumeratedItem>
                <EnumeratedItem CodedValue="LEUKEMIA, LARGE GRANULAR LYMPHOCYTIC, MALIGNANT" nciodm:ExtCodeID="C4664">
                    <nciodm:CDISCSynonym>LGLL</nciodm:CDISCSynonym>
                    <nciodm:CDISCSynonym>Large Cell Granular Lymphogenous Leukemia</nciodm:CDISCSynonym>
                    <nciodm:CDISCSynonym>Large Cell Granular Lymphoid Leukemia</nciodm:CDISCSynonym>
                    <nciodm:CDISCSynonym>Large Granular Lymphocytic Leukemia</nciodm:CDISCSynonym>
                    <nciodm:CDISCSynonym>Large Granular Lymphocytosis</nciodm:CDISCSynonym>
                    <nciodm:CDISCSynonym>T Gamma Lymphoproliferative Disorder</nciodm:CDISCSynonym>
                    <nciodm:CDISCSynonym>T-Cell Large Granular Lymphocytic Leukemia</nciodm:CDISCSynonym>
                    <nciodm:CDISCSynonym>T-Gamma Lymphoproliferative Disorder</nciodm:CDISCSynonym>
                    <nciodm:CDISCSynonym>Tgamma Large Granular Lymphocyte Leukemia</nciodm:CDISCSynonym>
                    <nciodm:CDISCDefinition>A progressive, proliferative disease of blood cells which are large and granular, originating from lymphoid cells.</nciodm:CDISCDefinition>
                    <nciodm:PreferredTerm>T-Cell Large Granular Lymphocyte Leukemia</nciodm:PreferredTerm>
                </EnumeratedItem>
                <EnumeratedItem CodedValue="LEUKEMIA, LYMPHOBLASTIC, MALIGNANT" nciodm:ExtCodeID="C3167">
                    <nciodm:CDISCSynonym>ALL</nciodm:CDISCSynonym>
                    <nciodm:CDISCSynonym>ALL - Acute Lymphocytic Leukemia</nciodm:CDISCSynonym>
                    <nciodm:CDISCSynonym>Acute Lymphocytic Leukaemia</nciodm:CDISCSynonym>
                    <nciodm:CDISCSynonym>Acute Lymphocytic Leukemias</nciodm:CDISCSynonym>
                    <nciodm:CDISCSynonym>Acute Lymphogenous Leukemia</nciodm:CDISCSynonym>
                    <nciodm:CDISCSynonym>Acute Lymphoid Leukemia</nciodm:CDISCSynonym>
                    <nciodm:CDISCSynonym>Lymphoblastic Leukemia</nciodm:CDISCSynonym>
                    <nciodm:CDISCSynonym>Precursor Cell Lymphoblastic Leukemia</nciodm:CDISCSynonym>
                    <nciodm:CDISCSynonym>Precursor Lymphoblasic Leukemia</nciodm:CDISCSynonym>
                    <nciodm:CDISCDefinition>A progressive, proliferative disease of blood cells, originating from immature lymphoid cells.</nciodm:CDISCDefinition>
                    <nciodm:PreferredTerm>Acute Lymphoblastic Leukemia</nciodm:PreferredTerm>
                </EnumeratedItem>
                <EnumeratedItem CodedValue="LEUKEMIA, LYMPHOCYTIC, MALIGNANT" nciodm:ExtCodeID="C7539">
                    <nciodm:CDISCSynonym>Lymphocytic Leukemia</nciodm:CDISCSynonym>
                    <nciodm:CDISCSynonym>Lymphogenous Leukemia</nciodm:CDISCSynonym>
                    <nciodm:CDISCDefinition>A progressive, proliferative disease of blood cells, originating from lymphoid cells.</nciodm:CDISCDefinition>
                    <nciodm:PreferredTerm>Lymphoid Leukemia</nciodm:PreferredTerm>
                </EnumeratedItem>
                <EnumeratedItem CodedValue="LEUKEMIA, MALIGNANT" nciodm:ExtCodeID="C3161">
                    <nciodm:CDISCSynonym>Blood (Leukemia)</nciodm:CDISCSynonym>
                    <nciodm:CDISCSynonym>Leukemia NOS</nciodm:CDISCSynonym>
                    <nciodm:CDISCSynonym>Leukemias</nciodm:CDISCSynonym>
                    <nciodm:CDISCSynonym>Leukemias, General</nciodm:CDISCSynonym>
                    <nciodm:CDISCDefinition>A progressive, proliferative disease of blood cells, originating from myeloid or lymphoid stem cells.</nciodm:CDISCDefinition>
                    <nciodm:PreferredTerm>Leukemia</nciodm:PreferredTerm>
                </EnumeratedItem>
                <EnumeratedItem CodedValue="LEUKEMIA, MEGAKARYOCYTIC, MALIGNANT" nciodm:ExtCodeID="C3170">
                    <nciodm:CDISCSynonym>Acute M7 Myeloid Leukemia</nciodm:CDISCSynonym>
                    <nciodm:CDISCSynonym>Acute Megakaryoblastic Leukemia (Fab Type M7)</nciodm:CDISCSynonym>
                    <nciodm:CDISCSynonym>Acute Megakaryocytic Leukemia</nciodm:CDISCSynonym>
                    <nciodm:CDISCSynonym>Fab M7</nciodm:CDISCSynonym>
                    <nciodm:CDISCDefinition>A progressive, proliferative disease of blood cells, originating from immature megakaryocytes.</nciodm:CDISCDefinition>
                    <nciodm:PreferredTerm>Acute Megakaryoblastic Leukemia</nciodm:PreferredTerm>
                </EnumeratedItem>
                <EnumeratedItem CodedValue="LEUKEMIA, MONOCYTIC, MALIGNANT" nciodm:ExtCodeID="C4861">
                    <nciodm:CDISCSynonym>Acute Monocytic Leukemia (Fab M5B)</nciodm:CDISCSynonym>
                    <nciodm:CDISCSynonym>Monocytic Leukemia</nciodm:CDISCSynonym>
                    <nciodm:CDISCDefinition>A progressive, proliferative disease of blood cells, originating from immature monocytes.</nciodm:CDISCDefinition>
                    <nciodm:PreferredTerm>Acute Monocytic Leukemia</nciodm:PreferredTerm>
                </EnumeratedItem>
                <EnumeratedItem CodedValue="LEYDIG CELL TUMOR, BENIGN" nciodm:ExtCodeID="C4212">
                    <nciodm:CDISCSynonym>Adenoma, Interstitial</nciodm:CDISCSynonym>
                    <nciodm:CDISCSynonym>Benign Interstitial Cell Neoplasm</nciodm:CDISCSynonym>
                    <nciodm:CDISCSynonym>Benign Interstitial Cell Tumor</nciodm:CDISCSynonym>
                    <nciodm:CDISCSynonym>Benign Leydig Cell Neoplasm</nciodm:CDISCSynonym>
                    <nciodm:CDISCDefinition>A benign neoplasm of the testis originating from interstitial (Leydig) cells.</nciodm:CDISCDefinition>
                    <nciodm:PreferredTerm>Benign Leydig Cell Tumor</nciodm:PreferredTerm>
                </EnumeratedItem>
                <EnumeratedItem CodedValue="LEYDIG CELL TUMOR, MALIGNANT" nciodm:ExtCodeID="C4213">
                    <nciodm:CDISCSynonym>Malignant Interstitial Cell Neoplasm</nciodm:CDISCSynonym>
                    <nciodm:CDISCSynonym>Malignant Interstitial Cell Tumor</nciodm:CDISCSynonym>
                    <nciodm:CDISCSynonym>Malignant Leydig Cell Neoplasm</nciodm:CDISCSynonym>
                    <nciodm:CDISCDefinition>A malignant neoplasm of the testis originating from interstitial (Leydig) cells.</nciodm:CDISCDefinition>
                    <nciodm:PreferredTerm>Malignant Leydig Cell Tumor</nciodm:PreferredTerm>
                </EnumeratedItem>
                <EnumeratedItem CodedValue="LEYDIG CELL TUMOR, UNDETERMINED" nciodm:ExtCodeID="C3188">
                    <nciodm:CDISCSynonym>Interstitial Cell Neoplasm</nciodm:CDISCSynonym>
                    <nciodm:CDISCSynonym>Interstitial Cell Tumor</nciodm:CDISCSynonym>
                    <nciodm:CDISCSynonym>Leydig Cell Neoplasm</nciodm:CDISCSynonym>
                    <nciodm:CDISCSynonym>Leydig Cell Tumor</nciodm:CDISCSynonym>
                    <nciodm:CDISCDefinition>A neoplasm of the testis originating from interstitial (Leydig) cells, for which the malignancy status has not been established.</nciodm:CDISCDefinition>
                    <nciodm:PreferredTerm>Leydig Cell Tumor</nciodm:PreferredTerm>
                </EnumeratedItem>
                <EnumeratedItem CodedValue="LIPOMA, BENIGN" nciodm:ExtCodeID="C3192">
                    <nciodm:CDISCDefinition>A benign neoplasm composed of adipose tissue.</nciodm:CDISCDefinition>
                    <nciodm:PreferredTerm>Lipoma</nciodm:PreferredTerm>
                </EnumeratedItem>
                <EnumeratedItem CodedValue="LIPOSARCOMA, MALIGNANT" nciodm:ExtCodeID="C3194">
                    <nciodm:CDISCDefinition>A malignant neoplasm composed of adipose tissue.</nciodm:CDISCDefinition>
                    <nciodm:PreferredTerm>Liposarcoma</nciodm:PreferredTerm>
                </EnumeratedItem>
                <EnumeratedItem CodedValue="LUTEOMA, BENIGN" nciodm:ExtCodeID="C3202">
                    <nciodm:CDISCSynonym>Luteal Cell Neoplasm</nciodm:CDISCSynonym>
                    <nciodm:CDISCSynonym>Luteal Cell Tumor</nciodm:CDISCSynonym>
                    <nciodm:CDISCSynonym>Luteinoma</nciodm:CDISCSynonym>
                    <nciodm:CDISCSynonym>Luteoma</nciodm:CDISCSynonym>
                    <nciodm:CDISCSynonym>Ovarian Stroma Luteoma</nciodm:CDISCSynonym>
                    <nciodm:CDISCDefinition>A benign neoplasm of the ovary, composed of leuteinized granulosa-theca cells.</nciodm:CDISCDefinition>
                    <nciodm:PreferredTerm>Ovarian Stromal Luteoma</nciodm:PreferredTerm>
                </EnumeratedItem>
                <EnumeratedItem CodedValue="LYMPHANGIOMA, BENIGN" nciodm:ExtCodeID="C8965">
                    <nciodm:CDISCDefinition>A benign neoplasm arising from the lymphatics.</nciodm:CDISCDefinition>
                    <nciodm:PreferredTerm>Lymphangioma</nciodm:PreferredTerm>
                </EnumeratedItem>
                <EnumeratedItem CodedValue="LYMPHANGIOSARCOMA, MALIGNANT" nciodm:ExtCodeID="C3205">
                    <nciodm:CDISCSynonym>Lymphangioendothelial Sarcoma</nciodm:CDISCSynonym>
                    <nciodm:CDISCSynonym>Malignant Lymphangioendothelioma</nciodm:CDISCSynonym>
                    <nciodm:CDISCDefinition>A malignant neoplasm arising from the endothelial cells of the lymphatic vessels.</nciodm:CDISCDefinition>
                    <nciodm:PreferredTerm>Lymphangiosarcoma</nciodm:PreferredTerm>
                </EnumeratedItem>
                <EnumeratedItem CodedValue="LYMPHOMA, FOLLICULAR, MALIGNANT" nciodm:ExtCodeID="C3209">
                    <nciodm:CDISCSynonym>Follicle Center Lymphoma</nciodm:CDISCSynonym>
                    <nciodm:CDISCSynonym>Follicular Centre Cell Lymphoma</nciodm:CDISCSynonym>
                    <nciodm:CDISCSynonym>Follicular Non-Hodgkin Lymphoma</nciodm:CDISCSynonym>
                    <nciodm:CDISCSynonym>Follicular Non-Hodgkin's Lymphoma</nciodm:CDISCSynonym>
                    <nciodm:CDISCSynonym>Lymphoma, Follicular Centre Cell</nciodm:CDISCSynonym>
                    <nciodm:CDISCDefinition>A neoplasm of lymphoid cells which has at least a partial follicular pattern.</nciodm:CDISCDefinition>
                    <nciodm:PreferredTerm>Follicular Lymphoma</nciodm:PreferredTerm>
                </EnumeratedItem>
                <EnumeratedItem CodedValue="LYMPHOMA, HISTIOCYTIC, MALIGNANT" nciodm:ExtCodeID="C114110">
                    <nciodm:CDISCSynonym>Lymphoma, Large Cell, Malignant</nciodm:CDISCSynonym>
                    <nciodm:CDISCDefinition>A malignant neoplasm of large lymphocytes, which resemble histiocytes.</nciodm:CDISCDefinition>
                    <nciodm:PreferredTerm>Experimental Organism Histiocytic Lymphoma Neoplasm</nciodm:PreferredTerm>
                </EnumeratedItem>
                <EnumeratedItem CodedValue="LYMPHOMA, IMMUNOBLASTIC, MALIGNANT" nciodm:ExtCodeID="C3461">
                    <nciodm:CDISCDefinition>A malignant neoplasm composed of immunoblasts (large B cells).</nciodm:CDISCDefinition>
                    <nciodm:PreferredTerm>Immunoblastic Lymphoma</nciodm:PreferredTerm>
                </EnumeratedItem>
                <EnumeratedItem CodedValue="LYMPHOMA, LYMPHOBLASTIC, MALIGNANT" nciodm:ExtCodeID="C9360">
                    <nciodm:CDISCSynonym>Precursor Cell Lymphoblastic Lymphoma</nciodm:CDISCSynonym>
                    <nciodm:CDISCSynonym>Precursor Lymphoblastic Lymphoma</nciodm:CDISCSynonym>
                    <nciodm:CDISCDefinition>A malignant neoplasm composed of lymphoblasts (lymphoid precursor cells).</nciodm:CDISCDefinition>
                    <nciodm:PreferredTerm>Lymphoblastic Lymphoma</nciodm:PreferredTerm>
                </EnumeratedItem>
                <EnumeratedItem CodedValue="LYMPHOMA, LYMPHOPLASMACYTIC, MALIGNANT" nciodm:ExtCodeID="C3212">
                    <nciodm:CDISCSynonym>Immunocytoma, Lymphoplasmacytic Type</nciodm:CDISCSynonym>
                    <nciodm:CDISCSynonym>Lymphoma, Plasmacytic</nciodm:CDISCSynonym>
                    <nciodm:CDISCSynonym>Lymphoplasmacytoid Lymphoma</nciodm:CDISCSynonym>
                    <nciodm:CDISCDefinition>A malignant neoplasm composed of lymphocytes (B-cells), lymphoplasmacytoid cells, and plasma cells.</nciodm:CDISCDefinition>
                    <nciodm:PreferredTerm>Lymphoplasmacytic Lymphoma</nciodm:PreferredTerm>
                </EnumeratedItem>
                <EnumeratedItem CodedValue="LYMPHOMA, MALIGNANT" nciodm:ExtCodeID="C3208">
                    <nciodm:CDISCSynonym>Lymphoma (Hodgkin and Non-Hodgkin)</nciodm:CDISCSynonym>
                    <nciodm:CDISCSynonym>Lymphoma (Hodgkin's and Non-Hodgkin's)</nciodm:CDISCSynonym>
                    <nciodm:CDISCSynonym>Malignant Lymphoma</nciodm:CDISCSynonym>
                    <nciodm:CDISCDefinition>A malignant neoplasm composed of lymphocytes of B- or T/NK-cell phenotype.</nciodm:CDISCDefinition>
                    <nciodm:PreferredTerm>Lymphoma</nciodm:PreferredTerm>
                </EnumeratedItem>
                <EnumeratedItem CodedValue="LYMPHOMA, MIXED, MALIGNANT" nciodm:ExtCodeID="C114111">
                    <nciodm:CDISCSynonym>Diffuse Mixed Large and Small Cell Lymphoma</nciodm:CDISCSynonym>
                    <nciodm:CDISCDefinition>A malignant neoplasm composed of a mixed lymphocyte population.</nciodm:CDISCDefinition>
                    <nciodm:PreferredTerm>Experimental Organism Mixed Lymphoma Neoplasm</nciodm:PreferredTerm>
                </EnumeratedItem>
                <EnumeratedItem CodedValue="LYMPHOMA, SMALL LYMPHOCYTIC, MALIGNANT" nciodm:ExtCodeID="C7540">
                    <nciodm:CDISCSynonym>B-Cell Small Lymphocytic Lymphoma</nciodm:CDISCSynonym>
                    <nciodm:CDISCSynonym>Lymphoma, Lymphocytic, Malignant</nciodm:CDISCSynonym>
                    <nciodm:CDISCSynonym>SLL</nciodm:CDISCSynonym>
                    <nciodm:CDISCSynonym>Small B-Cell Lymphocytic Lymphoma</nciodm:CDISCSynonym>
                    <nciodm:CDISCDefinition>A malignant neoplasm composed of small lymphocytes.</nciodm:CDISCDefinition>
                    <nciodm:PreferredTerm>Small Lymphocytic Lymphoma</nciodm:PreferredTerm>
                </EnumeratedItem>
                <EnumeratedItem CodedValue="LYMPHOSARCOMA, MALIGNANT" nciodm:ExtCodeID="C114112">
                    <nciodm:CDISCDefinition>An antiquated term referring to a malignant lymphoma that is diffused and composed of small and large lymphocytes.</nciodm:CDISCDefinition>
                    <nciodm:PreferredTerm>Experimental Organism Lymphosarcoma Neoplasm</nciodm:PreferredTerm>
                </EnumeratedItem>
                <EnumeratedItem CodedValue="MAST CELL TUMOR, BENIGN" nciodm:ExtCodeID="C3217">
                    <nciodm:CDISCDefinition>A benign neoplasm composed of mast cells.</nciodm:CDISCDefinition>
                    <nciodm:PreferredTerm>Benign Mastocytoma</nciodm:PreferredTerm>
                </EnumeratedItem>
                <EnumeratedItem CodedValue="MAST CELL TUMOR, MALIGNANT" nciodm:ExtCodeID="C8991">
                    <nciodm:CDISCDefinition>A malignant neoplasm composed of mast cells.</nciodm:CDISCDefinition>
                    <nciodm:PreferredTerm>Malignant Mastocytosis</nciodm:PreferredTerm>
                </EnumeratedItem>
                <EnumeratedItem CodedValue="MAST CELL TUMOR, UNDETERMINED" nciodm:ExtCodeID="C9295">
                    <nciodm:CDISCSynonym>Mast Cell Proliferative Disease</nciodm:CDISCSynonym>
                    <nciodm:CDISCSynonym>Mast Cell Tumor</nciodm:CDISCSynonym>
                    <nciodm:CDISCSynonym>Neoplasm of Mast Cells</nciodm:CDISCSynonym>
                    <nciodm:CDISCSynonym>Neoplasm of the Mast Cells</nciodm:CDISCSynonym>
                    <nciodm:CDISCSynonym>Tumor of Mast Cells</nciodm:CDISCSynonym>
                    <nciodm:CDISCSynonym>Tumor of the Mast Cells</nciodm:CDISCSynonym>
                    <nciodm:CDISCDefinition>A neoplasm composed of mast cells, for which the malignancy status has not been determined.</nciodm:CDISCDefinition>
                    <nciodm:PreferredTerm>Mast Cell Neoplasm</nciodm:PreferredTerm>
                </EnumeratedItem>
                <EnumeratedItem CodedValue="MEDULLOBLASTOMA, MALIGNANT" nciodm:ExtCodeID="C3222">
                    <nciodm:CDISCSynonym>Medulloblastomas</nciodm:CDISCSynonym>
                    <nciodm:CDISCDefinition>A malignant, invasive embryonal neoplasm arising from the cerebellum.</nciodm:CDISCDefinition>
                    <nciodm:PreferredTerm>Medulloblastoma</nciodm:PreferredTerm>
                </EnumeratedItem>
                <EnumeratedItem CodedValue="MELANOMA, AMELANOTIC, MALIGNANT" nciodm:ExtCodeID="C3802">
                    <nciodm:CDISCDefinition>A malignant neoplasm composed of melanocytes, which lack melanin.</nciodm:CDISCDefinition>
                    <nciodm:PreferredTerm>Amelanotic Melanoma</nciodm:PreferredTerm>
                </EnumeratedItem>
                <EnumeratedItem CodedValue="MELANOMA, BENIGN" nciodm:ExtCodeID="C98709">
                    <nciodm:CDISCSynonym>Benign Melanocytoma</nciodm:CDISCSynonym>
                    <nciodm:CDISCSynonym>Melanocytoma, Benign</nciodm:CDISCSynonym>
                    <nciodm:CDISCDefinition>A benign neoplasm or hamartoma composed of melanocytes.</nciodm:CDISCDefinition>
                    <nciodm:PreferredTerm>Benign Melanocytoma</nciodm:PreferredTerm>
                </EnumeratedItem>
                <EnumeratedItem CodedValue="MELANOMA, MALIGNANT" nciodm:ExtCodeID="C3224">
                    <nciodm:CDISCSynonym>Malignant Melanoma</nciodm:CDISCSynonym>
                    <nciodm:CDISCDefinition>A malignant neoplasm composed of melanocytes.</nciodm:CDISCDefinition>
                    <nciodm:PreferredTerm>Melanoma</nciodm:PreferredTerm>
                </EnumeratedItem>
                <EnumeratedItem CodedValue="MELANOMA, UVEAL, MALIGNANT" nciodm:ExtCodeID="C7712">
                    <nciodm:CDISCSynonym>Intraocular Melanoma</nciodm:CDISCSynonym>
                    <nciodm:CDISCSynonym>Melanoma of Uvea</nciodm:CDISCSynonym>
                    <nciodm:CDISCSynonym>Melanoma of the Uvea</nciodm:CDISCSynonym>
                    <nciodm:CDISCDefinition>A malignant neoplasm of the uvea composed of melanocytes.</nciodm:CDISCDefinition>
                    <nciodm:PreferredTerm>Uveal Melanoma</nciodm:PreferredTerm>
                </EnumeratedItem>
                <EnumeratedItem CodedValue="MENINGIOMA, ANAPLASTIC, MALIGNANT" nciodm:ExtCodeID="C4051">
                    <nciodm:CDISCSynonym>Anaplastic Meningioma</nciodm:CDISCSynonym>
                    <nciodm:CDISCSynonym>Malignant Meningioma</nciodm:CDISCSynonym>
                    <nciodm:CDISCSynonym>Meningioma, Malignant</nciodm:CDISCSynonym>
                    <nciodm:CDISCDefinition>A malignant neoplasm of the meninges, exhibiting poor differentiation (anaplasia).</nciodm:CDISCDefinition>
                    <nciodm:PreferredTerm>Anaplastic (Malignant) Meningioma</nciodm:PreferredTerm>
                </EnumeratedItem>
                <EnumeratedItem CodedValue="MENINGIOMA, BENIGN" nciodm:ExtCodeID="C4055">
                    <nciodm:CDISCSynonym>Meningioma, Benign</nciodm:CDISCSynonym>
                    <nciodm:CDISCDefinition>A benign neoplasm of the meninges.</nciodm:CDISCDefinition>
                    <nciodm:PreferredTerm>Benign Meningioma</nciodm:PreferredTerm>
                </EnumeratedItem>
                <EnumeratedItem CodedValue="MENINGIOMA, MALIGNANT" nciodm:ExtCodeID="C38938">
                    <nciodm:CDISCSynonym>Grade 3 Meningioma</nciodm:CDISCSynonym>
                    <nciodm:CDISCSynonym>Grade III Meningioma</nciodm:CDISCSynonym>
                    <nciodm:CDISCSynonym>Who Grade III Meningioma</nciodm:CDISCSynonym>
                    <nciodm:CDISCDefinition>A malignant neoplasm of the meninges.</nciodm:CDISCDefinition>
                    <nciodm:PreferredTerm>Grade III Meningioma</nciodm:PreferredTerm>
                </EnumeratedItem>
                <EnumeratedItem CodedValue="MENINGIOMA, UNDETERMINED" nciodm:ExtCodeID="C3230">
                    <nciodm:CDISCDefinition>A neoplasm of the meninges, for which the status of malignancy has not been determined.</nciodm:CDISCDefinition>
                    <nciodm:PreferredTerm>Meningioma</nciodm:PreferredTerm>
                </EnumeratedItem>
                <EnumeratedItem CodedValue="MESENCHYMAL TUMOR, BENIGN" nciodm:ExtCodeID="C4267">
                    <nciodm:CDISCDefinition>A benign soft-tissue neoplasm comprising two or more non-fibroblastic mesenchymal lines of differentiation.</nciodm:CDISCDefinition>
                    <nciodm:PreferredTerm>Benign Mesenchymoma</nciodm:PreferredTerm>
                </EnumeratedItem>
                <EnumeratedItem CodedValue="MESENCHYMAL TUMOR, MALIGNANT" nciodm:ExtCodeID="C64118">
                    <nciodm:CDISCDefinition>A malignant soft-tissue neoplasm comprising two or more non-fibroblastic mesenchymal lines of differentiation.</nciodm:CDISCDefinition>
                    <nciodm:PreferredTerm>Malignant Mesenchymal Tumor of the Rat Kidney</nciodm:PreferredTerm>
                </EnumeratedItem>
                <EnumeratedItem CodedValue="MESOTHELIOMA, BENIGN" nciodm:ExtCodeID="C3762">
                    <nciodm:CDISCSynonym>Adenomatoid Tumor, Benign</nciodm:CDISCSynonym>
                    <nciodm:CDISCSynonym>Benign Localized Epithelial Mesothelioma</nciodm:CDISCSynonym>
                    <nciodm:CDISCSynonym>Benign Mesothelial Neoplasm</nciodm:CDISCSynonym>
                    <nciodm:CDISCSynonym>Benign Mesothelial Tumor</nciodm:CDISCSynonym>
                    <nciodm:CDISCSynonym>Benign Mesothelioma</nciodm:CDISCSynonym>
                    <nciodm:CDISCSynonym>Benign Neoplasm of Mesothelium</nciodm:CDISCSynonym>
                    <nciodm:CDISCSynonym>Benign Neoplasm of the Mesothelium</nciodm:CDISCSynonym>
                    <nciodm:CDISCSynonym>Benign Tumor of Mesothelium</nciodm:CDISCSynonym>
                    <nciodm:CDISCSynonym>Benign Tumor of the Mesothelium</nciodm:CDISCSynonym>
                    <nciodm:CDISCSynonym>Mesothelioma, Benign</nciodm:CDISCSynonym>
                    <nciodm:CDISCDefinition>A benign neoplasm arising from mesothelial cells.</nciodm:CDISCDefinition>
                    <nciodm:PreferredTerm>Adenomatoid Tumor</nciodm:PreferredTerm>
                </EnumeratedItem>
                <EnumeratedItem CodedValue="MESOTHELIOMA, MALIGNANT" nciodm:ExtCodeID="C4456">
                    <nciodm:CDISCSynonym>Malignant Mesothelial Neoplasm</nciodm:CDISCSynonym>
                    <nciodm:CDISCSynonym>Malignant Mesothelial Tumor</nciodm:CDISCSynonym>
                    <nciodm:CDISCSynonym>Malignant Neoplasm of Mesothelium</nciodm:CDISCSynonym>
                    <nciodm:CDISCSynonym>Malignant Neoplasm of the Mesothelium</nciodm:CDISCSynonym>
                    <nciodm:CDISCSynonym>Malignant Tumor of Mesothelium</nciodm:CDISCSynonym>
                    <nciodm:CDISCSynonym>Malignant Tumor of the Mesothelium</nciodm:CDISCSynonym>
                    <nciodm:CDISCDefinition>A malignant neoplasm originating from mesothelial cells of the pleura or peritoneum.</nciodm:CDISCDefinition>
                    <nciodm:PreferredTerm>Malignant Mesothelioma</nciodm:PreferredTerm>
                </EnumeratedItem>
                <EnumeratedItem CodedValue="MESOTHELIOMA, UNDETERMINED" nciodm:ExtCodeID="C3234">
                    <nciodm:CDISCDefinition>A neoplasm originating from mesothelial cells of the pleura or peritoneum, for which the malignancy status has not been established.</nciodm:CDISCDefinition>
                    <nciodm:PreferredTerm>Mesothelioma</nciodm:PreferredTerm>
                </EnumeratedItem>
                <EnumeratedItem CodedValue="MIXED GLIOMA, BENIGN" nciodm:ExtCodeID="C4050">
                    <nciodm:CDISCDefinition>A benign neoplasm of the central nervous system with an astrocytic and oligodendrocytic component.</nciodm:CDISCDefinition>
                    <nciodm:PreferredTerm>Oligoastrocytoma</nciodm:PreferredTerm>
                </EnumeratedItem>
                <EnumeratedItem CodedValue="MIXED TUMOR, BENIGN" nciodm:ExtCodeID="C8602">
                    <nciodm:CDISCDefinition>A benign neoplasm composed of epithelial and/or myoepithelial cells and a mesenchymal component.</nciodm:CDISCDefinition>
                    <nciodm:PreferredTerm>Pleomorphic Adenoma</nciodm:PreferredTerm>
                </EnumeratedItem>
                <EnumeratedItem CodedValue="MIXED TUMOR, MALIGNANT" nciodm:ExtCodeID="C3729">
                    <nciodm:CDISCSynonym>Malignant Mixed Tumor</nciodm:CDISCSynonym>
                    <nciodm:CDISCDefinition>A malignant neoplasm composed of epithelial and/or myoepithelial cells and a mesenchymal component. A general term for which the transformed cell types have not been specified.</nciodm:CDISCDefinition>
                    <nciodm:PreferredTerm>Malignant Mixed Neoplasm</nciodm:PreferredTerm>
                </EnumeratedItem>
                <EnumeratedItem CodedValue="MIXED TUMOR, UNDETERMINED" nciodm:ExtCodeID="C6930">
                    <nciodm:CDISCSynonym>Mixed Tumor</nciodm:CDISCSynonym>
                    <nciodm:CDISCSynonym>Tumor, Mixed</nciodm:CDISCSynonym>
                    <nciodm:CDISCDefinition>A neoplasm composed of an epithelial component and/or a mesenchymal component, for which the malignancy status has not been established. A general term for which the transformed cell types have not been specified.</nciodm:CDISCDefinition>
                    <nciodm:PreferredTerm>Mixed Neoplasm</nciodm:PreferredTerm>
                </EnumeratedItem>
                <EnumeratedItem CodedValue="MUELLERIAN TUMOR, MIXED, MALIGNANT" nciodm:ExtCodeID="C8975">
                    <nciodm:CDISCSynonym>Malignant Mixed Mesodermal Tumor</nciodm:CDISCSynonym>
                    <nciodm:CDISCSynonym>Malignant Mixed Mullerian Tumor</nciodm:CDISCSynonym>
                    <nciodm:CDISCSynonym>Mmmt</nciodm:CDISCSynonym>
                    <nciodm:CDISCDefinition>A malignant neoplasm of the female reproductive system (mostly uterus and ovaries) originating from the Muellerian ducts and composed of carcinomatous and sarcomatous elements.</nciodm:CDISCDefinition>
                    <nciodm:PreferredTerm>Malignant Mixed Mesodermal (Mullerian) Tumor</nciodm:PreferredTerm>
                </EnumeratedItem>
                <EnumeratedItem CodedValue="MYELOLIPOMA, BENIGN" nciodm:ExtCodeID="C3736">
                    <nciodm:CDISCSynonym>Myelolipoma</nciodm:CDISCSynonym>
                    <nciodm:CDISCDefinition>A benign tumor of the adrenal gland composed of adipocytes and hematopoietic/lymphoid cells.</nciodm:CDISCDefinition>
                    <nciodm:PreferredTerm>Adrenal Gland Myelolipoma</nciodm:PreferredTerm>
                </EnumeratedItem>
                <EnumeratedItem CodedValue="MYELOMA, PLASMA CELL, MALIGNANT" nciodm:ExtCodeID="C3242">
                    <nciodm:CDISCSynonym>Multiple Myeloma</nciodm:CDISCSynonym>
                    <nciodm:CDISCSynonym>Myeloma</nciodm:CDISCSynonym>
                    <nciodm:CDISCDefinition>A malignant neoplasm of the bone marrow composed of plasma cells.</nciodm:CDISCDefinition>
                    <nciodm:PreferredTerm>Plasma Cell Myeloma</nciodm:PreferredTerm>
                </EnumeratedItem>
                <EnumeratedItem CodedValue="MYOEPITHELIOMA, BENIGN" nciodm:ExtCodeID="C7442">
                    <nciodm:CDISCDefinition>A benign neoplasm composed of myoepithelial cells.</nciodm:CDISCDefinition>
                    <nciodm:PreferredTerm>Benign Myoepithelioma</nciodm:PreferredTerm>
                </EnumeratedItem>
                <EnumeratedItem CodedValue="MYOEPITHELIOMA, MALIGNANT" nciodm:ExtCodeID="C7596">
                    <nciodm:CDISCSynonym>Malignant Myoepithelioma</nciodm:CDISCSynonym>
                    <nciodm:CDISCSynonym>Myoepithelial Carcinoma</nciodm:CDISCSynonym>
                    <nciodm:CDISCDefinition>A malignant neoplasm composed of myoepithelial cells.</nciodm:CDISCDefinition>
                    <nciodm:PreferredTerm>Malignant Myoepithelioma</nciodm:PreferredTerm>
                </EnumeratedItem>
                <EnumeratedItem CodedValue="MYXOMA, BENIGN" nciodm:ExtCodeID="C6577">
                    <nciodm:CDISCDefinition>A benign soft tissue neoplasm with a myxoid stroma formation.</nciodm:CDISCDefinition>
                    <nciodm:PreferredTerm>Myxoma</nciodm:PreferredTerm>
                </EnumeratedItem>
                <EnumeratedItem CodedValue="MYXOSARCOMA, MALIGNANT" nciodm:ExtCodeID="C3255">
                    <nciodm:CDISCDefinition>A malignant soft tissue neoplasm with a myxoid stroma formation.</nciodm:CDISCDefinition>
                    <nciodm:PreferredTerm>Myxosarcoma</nciodm:PreferredTerm>
                </EnumeratedItem>
                <EnumeratedItem CodedValue="NEOPLASM, BENIGN" nciodm:ExtCodeID="C3677">
                    <nciodm:CDISCSynonym>Benign Tumor</nciodm:CDISCSynonym>
                    <nciodm:CDISCSynonym>Benign Unclassifiable Tumor</nciodm:CDISCSynonym>
                    <nciodm:CDISCDefinition>A general term used to describe autonomous growth of tissue where the originating cell type has not been characterized. The term benign indicates the absence of morphologic features associated with malignancy (for instance severe atypia, nuclear pleomorphism, tumor cell necrosis, and abnormal mitoses).</nciodm:CDISCDefinition>
                    <nciodm:PreferredTerm>Benign Neoplasm</nciodm:PreferredTerm>
                </EnumeratedItem>
                <EnumeratedItem CodedValue="NEOPLASM, MALIGNANT" nciodm:ExtCodeID="C9305">
                    <nciodm:CDISCSynonym>CA</nciodm:CDISCSynonym>
                    <nciodm:CDISCSynonym>Cancer</nciodm:CDISCSynonym>
                    <nciodm:CDISCSynonym>Malignancy</nciodm:CDISCSynonym>
                    <nciodm:CDISCSynonym>Malignant Tumor</nciodm:CDISCSynonym>
                    <nciodm:CDISCDefinition>A general term for autonomous tissue growth exhibiting morphologic features of malignancy (e.g. severe atypia, nuclear pleomorphism, tumor cell necrosis, abnormal mitoses, tissue invasiveness) and for which the transformed cell type has not been specifically identified.</nciodm:CDISCDefinition>
                    <nciodm:PreferredTerm>Malignant Neoplasm</nciodm:PreferredTerm>
                </EnumeratedItem>
                <EnumeratedItem CodedValue="NEOPLASM, UNDETERMINED" nciodm:ExtCodeID="C3262">
                    <nciodm:CDISCDefinition>A general term for autonomous tissue growth in which the malignancy status has not been established and for which the transformed cell type has not been specifically identified.</nciodm:CDISCDefinition>
                    <nciodm:PreferredTerm>Neoplasm</nciodm:PreferredTerm>
                </EnumeratedItem>
                <EnumeratedItem CodedValue="NEPHROBLASTOMA, BENIGN" nciodm:ExtCodeID="C114235">
                    <nciodm:CDISCDefinition>A benign embryonal neoplasm of the kidney.</nciodm:CDISCDefinition>
                    <nciodm:PreferredTerm>Experimental Organism Benign Nephroblastoma Neoplasm</nciodm:PreferredTerm>
                </EnumeratedItem>
                <EnumeratedItem CodedValue="NEPHROBLASTOMA, MALIGNANT" nciodm:ExtCodeID="C40407">
                    <nciodm:CDISCSynonym>Embryonal Nephroma</nciodm:CDISCSynonym>
                    <nciodm:CDISCSynonym>Nephroblastoma</nciodm:CDISCSynonym>
                    <nciodm:CDISCSynonym>Renal Wilms' Tumor</nciodm:CDISCSynonym>
                    <nciodm:CDISCSynonym>Wilms Tumor of the Kidney</nciodm:CDISCSynonym>
                    <nciodm:CDISCSynonym>Wilms' Tumor of the Kidney</nciodm:CDISCSynonym>
                    <nciodm:CDISCDefinition>A malignant embryonal neoplasm of the kidney.</nciodm:CDISCDefinition>
                    <nciodm:PreferredTerm>Kidney Wilms Tumor</nciodm:PreferredTerm>
                </EnumeratedItem>
                <EnumeratedItem CodedValue="NEURAL CREST TUMOR, UNDETERMINED" nciodm:ExtCodeID="C6963">
                    <nciodm:CDISCDefinition>A neoplasm composed of cells of neuroendocrine origin for which the malignancy status has not been established.</nciodm:CDISCDefinition>
                    <nciodm:PreferredTerm>Neuroblastic Tumor</nciodm:PreferredTerm>
                </EnumeratedItem>
                <EnumeratedItem CodedValue="NEUROBLASTOMA, MALIGNANT" nciodm:ExtCodeID="C3270">
                    <nciodm:CDISCSynonym>Neural Crest Tumor, Malignant</nciodm:CDISCSynonym>
                    <nciodm:CDISCSynonym>Neuroblastoma (Schwannian Stroma-poor)</nciodm:CDISCSynonym>
                    <nciodm:CDISCDefinition>A malignant neoplasm composed of neuroblastic cells.</nciodm:CDISCDefinition>
                    <nciodm:PreferredTerm>Neuroblastoma</nciodm:PreferredTerm>
                </EnumeratedItem>
                <EnumeratedItem CodedValue="NEUROBLASTOMA, OLFACTORY, MALIGNANT" nciodm:ExtCodeID="C3789">
                    <nciodm:CDISCSynonym>Esthesioneuroblastoma</nciodm:CDISCSynonym>
                    <nciodm:CDISCSynonym>Esthesioneuroepithelioma</nciodm:CDISCSynonym>
                    <nciodm:CDISCSynonym>Olfactory Esthesioneuroblastoma</nciodm:CDISCSynonym>
                    <nciodm:CDISCSynonym>Olfactory Neuroepithelioma</nciodm:CDISCSynonym>
                    <nciodm:CDISCDefinition>A malignant neoplasm of the olfactory receptor cells, composed of neuroblastic cells.</nciodm:CDISCDefinition>
                    <nciodm:PreferredTerm>Olfactory Neuroblastoma</nciodm:PreferredTerm>
                </EnumeratedItem>
                <EnumeratedItem CodedValue="NEUROFIBROMA, BENIGN" nciodm:ExtCodeID="C3272">
                    <nciodm:CDISCDefinition>An intraneural or extraneural neoplasm arising from nerve tissues and neural sheaths, composed of perineurial-like fibroblasts and Schwann cells.</nciodm:CDISCDefinition>
                    <nciodm:PreferredTerm>Neurofibroma</nciodm:PreferredTerm>
                </EnumeratedItem>
                <EnumeratedItem CodedValue="NEUROGLIAL TUMOR, UNDETERMINED" nciodm:ExtCodeID="C3059">
                    <nciodm:CDISCSynonym>Glial Neoplasm</nciodm:CDISCSynonym>
                    <nciodm:CDISCSynonym>Glial Tumor</nciodm:CDISCSynonym>
                    <nciodm:CDISCSynonym>Glioma</nciodm:CDISCSynonym>
                    <nciodm:CDISCSynonym>Neoplasm of Neuroglia</nciodm:CDISCSynonym>
                    <nciodm:CDISCSynonym>Neoplasm of the Neuroglia</nciodm:CDISCSynonym>
                    <nciodm:CDISCSynonym>Neoplasms of Neuroglia</nciodm:CDISCSynonym>
                    <nciodm:CDISCSynonym>Neuroglial Neoplasm</nciodm:CDISCSynonym>
                    <nciodm:CDISCSynonym>Neuroglial Neoplasms</nciodm:CDISCSynonym>
                    <nciodm:CDISCSynonym>Tumor of Neuroglia</nciodm:CDISCSynonym>
                    <nciodm:CDISCSynonym>Tumor of the Neuroglia</nciodm:CDISCSynonym>
                    <nciodm:CDISCSynonym>Tumors of Neuroglia</nciodm:CDISCSynonym>
                    <nciodm:CDISCDefinition>A neoplasm of the central nervous system composed of glial cells (astrocytes, oligodendrocytes, ependymal cells), for which the malignancy status has not been determined.</nciodm:CDISCDefinition>
                    <nciodm:PreferredTerm>Glioma</nciodm:PreferredTerm>
                </EnumeratedItem>
                <EnumeratedItem CodedValue="NEUROMYOBLASTOMA, MALIGNANT" nciodm:ExtCodeID="C116214">
                    <nciodm:CDISCDefinition>A malignant tumor that arises in the brain stem or adjacent cranial nerves, consisting of variable populations of cells with neuronal and myoblast differentiation. (INHAND)</nciodm:CDISCDefinition>
                    <nciodm:PreferredTerm>Experimental Organism Malignant Neuromyoblastoma</nciodm:PreferredTerm>
                </EnumeratedItem>
                <EnumeratedItem CodedValue="ODONTOGENIC TUMOR, BENIGN" nciodm:ExtCodeID="C4306">
                    <nciodm:CDISCSynonym>Benign Odontogenic Tumor</nciodm:CDISCSynonym>
                    <nciodm:CDISCDefinition>A benign neoplasm arising from tooth-forming tissues.</nciodm:CDISCDefinition>
                    <nciodm:PreferredTerm>Benign Odontogenic Neoplasm</nciodm:PreferredTerm>
                </EnumeratedItem>
                <EnumeratedItem CodedValue="ODONTOGENIC TUMOR, UNDETERMINED" nciodm:ExtCodeID="C3286">
                    <nciodm:CDISCSynonym>Odontogenic Tumor</nciodm:CDISCSynonym>
                    <nciodm:CDISCDefinition>A neoplasm arising from tooth-forming tissues, for which the malignancy status has not been established.</nciodm:CDISCDefinition>
                    <nciodm:PreferredTerm>Odontogenic Neoplasm</nciodm:PreferredTerm>
                </EnumeratedItem>
                <EnumeratedItem CodedValue="ODONTOMA, AMELOBLASTIC, BENIGN" nciodm:ExtCodeID="C3710">
                    <nciodm:CDISCSynonym>Ameloblastic Fibroodontoma</nciodm:CDISCSynonym>
                    <nciodm:CDISCSynonym>Fibroameloblastic Odontoma</nciodm:CDISCSynonym>
                    <nciodm:CDISCDefinition>A benign neoplasm arising from tooth-forming tissues with-enamel organ differentiation (but without enamel formation).</nciodm:CDISCDefinition>
                    <nciodm:PreferredTerm>Ameloblastic Fibro-Odontoma</nciodm:PreferredTerm>
                </EnumeratedItem>
                <EnumeratedItem CodedValue="ODONTOMA, AMELOBLASTIC, MALIGNANT" nciodm:ExtCodeID="C7492">
                    <nciodm:CDISCDefinition>A malignant neoplasm arising from tooth-forming tissues with-enamel organ differentiation (but without enamel formation).</nciodm:CDISCDefinition>
                    <nciodm:PreferredTerm>Ameloblastic Carcinoma</nciodm:PreferredTerm>
                </EnumeratedItem>
                <EnumeratedItem CodedValue="ODONTOMA, BENIGN" nciodm:ExtCodeID="C3287">
                    <nciodm:CDISCSynonym>Fibro-Odontoma</nciodm:CDISCSynonym>
                    <nciodm:CDISCSynonym>Fibroodontoma</nciodm:CDISCSynonym>
                    <nciodm:CDISCDefinition>A benign neoplasm of tooth origin.</nciodm:CDISCDefinition>
                    <nciodm:PreferredTerm>Odontoma</nciodm:PreferredTerm>
                </EnumeratedItem>
                <EnumeratedItem CodedValue="ODONTOMA, MALIGNANT" nciodm:ExtCodeID="C4812">
                    <nciodm:CDISCSynonym>Malignant Odontogenic Tumor</nciodm:CDISCSynonym>
                    <nciodm:CDISCSynonym>Odontogenic Carcinoma</nciodm:CDISCSynonym>
                    <nciodm:CDISCSynonym>Odontogenic Carcinosarcoma</nciodm:CDISCSynonym>
                    <nciodm:CDISCDefinition>A malignant neoplasm of tooth origin.</nciodm:CDISCDefinition>
                    <nciodm:PreferredTerm>Malignant Odontogenic Neoplasm</nciodm:PreferredTerm>
                </EnumeratedItem>
                <EnumeratedItem CodedValue="OLIGODENDROGLIOMA, ANAPLASTIC, MALIGNANT" nciodm:ExtCodeID="C4326">
                    <nciodm:CDISCSynonym>Malignant Oligodendroglioma</nciodm:CDISCSynonym>
                    <nciodm:CDISCSynonym>Undifferentiated Oligodendroglioma</nciodm:CDISCSynonym>
                    <nciodm:CDISCSynonym>Who Grade III Oligodendroglial Neoplasm</nciodm:CDISCSynonym>
                    <nciodm:CDISCSynonym>Who Grade III Oligodendroglial Tumor</nciodm:CDISCSynonym>
                    <nciodm:CDISCDefinition>A malignant neoplasm of the central nervous system arising from oligodendrocytes, exhibiting poor differentiation (anaplasia).</nciodm:CDISCDefinition>
                    <nciodm:PreferredTerm>Anaplastic Oligodendroglioma</nciodm:PreferredTerm>
                </EnumeratedItem>
                <EnumeratedItem CodedValue="OLIGODENDROGLIOMA, MALIGNANT" nciodm:ExtCodeID="C119577">
                    <nciodm:CDISCDefinition>A malignant neoplasm of the brain or spinal cord originating from oligodendrocytes.</nciodm:CDISCDefinition>
                    <nciodm:PreferredTerm>Experimental Organism Malignant Oligodendroglioma</nciodm:PreferredTerm>
                </EnumeratedItem>
                <EnumeratedItem CodedValue="OLIGODENDROGLIOMA, UNDETERMINED" nciodm:ExtCodeID="C3288">
                    <nciodm:CDISCSynonym>Well Differentiated Oligodendroglial Tumor</nciodm:CDISCSynonym>
                    <nciodm:CDISCSynonym>Well Differentiated Oligodendroglioma</nciodm:CDISCSynonym>
                    <nciodm:CDISCSynonym>Who Grade II Oligodendroglial Neoplasm</nciodm:CDISCSynonym>
                    <nciodm:CDISCSynonym>Who Grade II Oligodendroglial Tumor</nciodm:CDISCSynonym>
                    <nciodm:CDISCDefinition>A neoplasm of the central nervous system arising from oligodendrocytes, for which the malignancy status has not been determined.</nciodm:CDISCDefinition>
                    <nciodm:PreferredTerm>Oligodendroglioma</nciodm:PreferredTerm>
                </EnumeratedItem>
                <EnumeratedItem CodedValue="ONCOCYTOMA, BENIGN" nciodm:ExtCodeID="C7072">
                    <nciodm:CDISCSynonym>Oncocytic Tumor</nciodm:CDISCSynonym>
                    <nciodm:CDISCSynonym>Oncocytoma</nciodm:CDISCSynonym>
                    <nciodm:CDISCDefinition>A benign neoplasm composed of large cells with abundant eosinophilic granular cytoplasm (oncocytes).</nciodm:CDISCDefinition>
                    <nciodm:PreferredTerm>Oncocytic Neoplasm</nciodm:PreferredTerm>
                </EnumeratedItem>
                <EnumeratedItem CodedValue="ONCOCYTOMA, MALIGNANT" nciodm:ExtCodeID="C3679">
                    <nciodm:CDISCSynonym>Hurthle Cell Adenocarcinoma</nciodm:CDISCSynonym>
                    <nciodm:CDISCSynonym>Hurthle Cell Carcinoma</nciodm:CDISCSynonym>
                    <nciodm:CDISCSynonym>Oncocytic Adenocarcinoma</nciodm:CDISCSynonym>
                    <nciodm:CDISCSynonym>Oncocytic Carcinoma</nciodm:CDISCSynonym>
                    <nciodm:CDISCDefinition>A malignant neoplasm composed of large epithelial cells with abundant granular eosinophilic cytoplasm (oncocytes).</nciodm:CDISCDefinition>
                    <nciodm:PreferredTerm>Oxyphilic Adenocarcinoma</nciodm:PreferredTerm>
                </EnumeratedItem>
                <EnumeratedItem CodedValue="OSTEOBLASTOMA, BENIGN" nciodm:ExtCodeID="C3294">
                    <nciodm:CDISCSynonym>Giant Osteoid Osteoma</nciodm:CDISCSynonym>
                    <nciodm:CDISCSynonym>Ossifying Giant Cell Tumor</nciodm:CDISCSynonym>
                    <nciodm:CDISCDefinition>A benign neoplasm of bone, characterized by the formation of osteoid tissue and large osteoblast-like cells.</nciodm:CDISCDefinition>
                    <nciodm:PreferredTerm>Osteoblastoma</nciodm:PreferredTerm>
                </EnumeratedItem>
                <EnumeratedItem CodedValue="OSTEOCHONDROMA, BENIGN" nciodm:ExtCodeID="C3295">
                    <nciodm:CDISCDefinition>A benign cartiliginous neoplasm arising from the metaphysis of bone.</nciodm:CDISCDefinition>
                    <nciodm:PreferredTerm>Osteochondroma</nciodm:PreferredTerm>
                </EnumeratedItem>
                <EnumeratedItem CodedValue="OSTEOCHONDROSARCOMA, MALIGNANT" nciodm:ExtCodeID="C7155">
                    <nciodm:CDISCSynonym>Conventional Chondrosarcoma of Bone</nciodm:CDISCSynonym>
                    <nciodm:CDISCSynonym>Primary Bone Chondrosarcoma</nciodm:CDISCSynonym>
                    <nciodm:CDISCSynonym>Primary Chondrosarcoma</nciodm:CDISCSynonym>
                    <nciodm:CDISCSynonym>Primary Chondrosarcoma of Bone</nciodm:CDISCSynonym>
                    <nciodm:CDISCSynonym>Primary Chondrosarcoma of the Bone</nciodm:CDISCSynonym>
                    <nciodm:CDISCDefinition>A malignant cartiliginous neoplasm of bone.</nciodm:CDISCDefinition>
                    <nciodm:PreferredTerm>Primary Central Chondrosarcoma</nciodm:PreferredTerm>
                </EnumeratedItem>
                <EnumeratedItem CodedValue="OSTEOCLASTOMA, MALIGNANT" nciodm:ExtCodeID="C4304">
                    <nciodm:CDISCSynonym>Dedifferentiated Giant Cell Tumor</nciodm:CDISCSynonym>
                    <nciodm:CDISCSynonym>Giant Cell Bone Sarcoma</nciodm:CDISCSynonym>
                    <nciodm:CDISCSynonym>Giant Cell Sarcoma of Bone</nciodm:CDISCSynonym>
                    <nciodm:CDISCSynonym>Giant Cell Sarcoma of the Bone</nciodm:CDISCSynonym>
                    <nciodm:CDISCDefinition>A malignant neoplasm of bone comprised of osteoclast-like giant cells and mononuclear cells.</nciodm:CDISCDefinition>
                    <nciodm:PreferredTerm>Malignancy in Giant Cell Tumor of Bone</nciodm:PreferredTerm>
                </EnumeratedItem>
                <EnumeratedItem CodedValue="OSTEOCLASTOMA, UNDETERMINED" nciodm:ExtCodeID="C3738">
                    <nciodm:CDISCDefinition>A neoplasm of bone comprised of osteoclast-like giant cells and mononuclear cells, for which the malignancy status has not been established.</nciodm:CDISCDefinition>
                    <nciodm:PreferredTerm>Osteoclastic Giant Cell-Rich Tumor of Bone</nciodm:PreferredTerm>
                </EnumeratedItem>
                <EnumeratedItem CodedValue="OSTEOFIBROMA, BENIGN" nciodm:ExtCodeID="C3740">
                    <nciodm:CDISCSynonym>Desmoid Tumor of Bone</nciodm:CDISCSynonym>
                    <nciodm:CDISCSynonym>Desmoplastic Fibroma</nciodm:CDISCSynonym>
                    <nciodm:CDISCSynonym>Desmoplastic Fibroma of Bone</nciodm:CDISCSynonym>
                    <nciodm:CDISCSynonym>Desmoplastic Fibroma of the Bone</nciodm:CDISCSynonym>
                    <nciodm:CDISCSynonym>Osseous Desmoplastic Fibroma</nciodm:CDISCSynonym>
                    <nciodm:CDISCDefinition>A benign neoplasm characterized by osteolysis and the presence of a rich collagenous stroma and spindle cells.</nciodm:CDISCDefinition>
                    <nciodm:PreferredTerm>Bone Desmoplastic Fibroma</nciodm:PreferredTerm>
                </EnumeratedItem>
                <EnumeratedItem CodedValue="OSTEOFIBROMA, BONE, BENIGN" nciodm:ExtCodeID="C103392">
                    <nciodm:CDISCSynonym>Osteofibroma, Bone</nciodm:CDISCSynonym>
                    <nciodm:CDISCDefinition>A benign neoplasm, morphologically a fibroma with osseous components.</nciodm:CDISCDefinition>
                    <nciodm:PreferredTerm>Experimental Organism Benign Bone Osteofibroma</nciodm:PreferredTerm>
                </EnumeratedItem>
                <EnumeratedItem CodedValue="OSTEOMA, BENIGN" nciodm:ExtCodeID="C3296">
                    <nciodm:CDISCDefinition>A benign well-differentiated neoplasm of bone.</nciodm:CDISCDefinition>
                    <nciodm:PreferredTerm>Osteoma</nciodm:PreferredTerm>
                </EnumeratedItem>
                <EnumeratedItem CodedValue="OSTEOSARCOMA, EXTRASKELETAL, MALIGNANT" nciodm:ExtCodeID="C8810">
                    <nciodm:CDISCSynonym>Extraosseous Osteosarcoma</nciodm:CDISCSynonym>
                    <nciodm:CDISCSynonym>Extraskeletal Osteogenic Sarcoma</nciodm:CDISCSynonym>
                    <nciodm:CDISCSynonym>Soft Tissue Osteosarcoma</nciodm:CDISCSynonym>
                    <nciodm:CDISCDefinition>A malignant bone-forming neoplasm, arising in tissue other than bone.</nciodm:CDISCDefinition>
                    <nciodm:PreferredTerm>Extraskeletal Osteosarcoma</nciodm:PreferredTerm>
                </EnumeratedItem>
                <EnumeratedItem CodedValue="OSTEOSARCOMA, MALIGNANT" nciodm:ExtCodeID="C9145">
                    <nciodm:CDISCSynonym>Osteogenic Sarcoma</nciodm:CDISCSynonym>
                    <nciodm:CDISCDefinition>A malignant neoplasm usually arising from bone.</nciodm:CDISCDefinition>
                    <nciodm:PreferredTerm>Osteosarcoma</nciodm:PreferredTerm>
                </EnumeratedItem>
                <EnumeratedItem CodedValue="OVARIAN SEX CORD-STROMAL TUMOR, BENIGN" nciodm:ExtCodeID="C6803">
                    <nciodm:CDISCSynonym>Benign Ovarian Sex Cord-Stromal Neoplasm</nciodm:CDISCSynonym>
                    <nciodm:CDISCSynonym>Benign Sex Cord-Stromal Neoplasm of Ovary</nciodm:CDISCSynonym>
                    <nciodm:CDISCSynonym>Benign Sex Cord-Stromal Neoplasm of the Ovary</nciodm:CDISCSynonym>
                    <nciodm:CDISCSynonym>Benign Sex Cord-Stromal Tumor of Ovary</nciodm:CDISCSynonym>
                    <nciodm:CDISCSynonym>Benign Sex Cord-Stromal Tumor of the Ovary</nciodm:CDISCSynonym>
                    <nciodm:CDISCSynonym>Sex Cord Stromal Tumor, Benign</nciodm:CDISCSynonym>
                    <nciodm:CDISCDefinition>A benign neoplasm of the ovary, originating from the sex-cord stroma.</nciodm:CDISCDefinition>
                    <nciodm:PreferredTerm>Benign Ovarian Sex Cord-Stromal Tumor</nciodm:PreferredTerm>
                </EnumeratedItem>
                <EnumeratedItem CodedValue="PAPILLOMA, BENIGN" nciodm:ExtCodeID="C7440">
                    <nciodm:CDISCDefinition>A benign epithelial neoplasm that projects above the surrounding epithelial surface.</nciodm:CDISCDefinition>
                    <nciodm:PreferredTerm>Papilloma</nciodm:PreferredTerm>
                </EnumeratedItem>
                <EnumeratedItem CodedValue="PAPILLOMA, CHOROID PLEXUS, BENIGN" nciodm:ExtCodeID="C3698">
                    <nciodm:CDISCSynonym>Papilloma of Choroid Plexus</nciodm:CDISCSynonym>
                    <nciodm:CDISCSynonym>Papilloma of the Choroid Plexus</nciodm:CDISCSynonym>
                    <nciodm:CDISCDefinition>A benign neoplasm of the choroid plexus of the central nervous system.</nciodm:CDISCDefinition>
                    <nciodm:PreferredTerm>Choroid Plexus Papilloma</nciodm:PreferredTerm>
                </EnumeratedItem>
                <EnumeratedItem CodedValue="PAPILLOMA, SQUAMOUS CELL, BENIGN" nciodm:ExtCodeID="C3712">
                    <nciodm:CDISCSynonym>Epidermoid Cell Papilloma</nciodm:CDISCSynonym>
                    <nciodm:CDISCSynonym>Epidermoid Papilloma</nciodm:CDISCSynonym>
                    <nciodm:CDISCSynonym>Keratotic Papilloma</nciodm:CDISCSynonym>
                    <nciodm:CDISCSynonym>Squamous Cell Papilloma</nciodm:CDISCSynonym>
                    <nciodm:CDISCDefinition>A benign epithelial neoplasm characterized by a papillary growth pattern and a proliferation of neoplastic squamous cells.</nciodm:CDISCDefinition>
                    <nciodm:PreferredTerm>Squamous Papilloma</nciodm:PreferredTerm>
                </EnumeratedItem>
                <EnumeratedItem CodedValue="PAPILLOMA, TRANSITIONAL CELL, BENIGN" nciodm:ExtCodeID="C4115">
                    <nciodm:CDISCSynonym>Transitional Papilloma</nciodm:CDISCSynonym>
                    <nciodm:CDISCDefinition>A benign papillary neoplasm composed of transitional cells.</nciodm:CDISCDefinition>
                    <nciodm:PreferredTerm>Transitional Cell Papilloma</nciodm:PreferredTerm>
                </EnumeratedItem>
                <EnumeratedItem CodedValue="PARAGANGLIOMA, BENIGN" nciodm:ExtCodeID="C48314">
                    <nciodm:CDISCSynonym>Benign Neuroendocrine Cell Tumor</nciodm:CDISCSynonym>
                    <nciodm:CDISCSynonym>Benign Paraganglionic Neoplasm</nciodm:CDISCSynonym>
                    <nciodm:CDISCDefinition>A benign neoplasm arising from paraganglia located along nerves composed of neoplastic neuroectodermal chromaffin cells.</nciodm:CDISCDefinition>
                    <nciodm:PreferredTerm>Benign Paraganglioma</nciodm:PreferredTerm>
                </EnumeratedItem>
                <EnumeratedItem CodedValue="PARAGANGLIOMA, MALIGNANT" nciodm:ExtCodeID="C8559">
                    <nciodm:CDISCSynonym>Malignant Neoplasm of Paraganglion</nciodm:CDISCSynonym>
                    <nciodm:CDISCSynonym>Malignant Paraganglion Tumor</nciodm:CDISCSynonym>
                    <nciodm:CDISCDefinition>A malignant neoplasm arising from paraganglia located along nerves composed of neoplastic neuroectodermal chromaffin cells.</nciodm:CDISCDefinition>
                    <nciodm:PreferredTerm>Malignant Paraganglioma</nciodm:PreferredTerm>
                </EnumeratedItem>
                <EnumeratedItem CodedValue="PARAGANGLIOMA, UNDETERMINED" nciodm:ExtCodeID="C3308">
                    <nciodm:CDISCSynonym>Neoplasm of Paraganglion</nciodm:CDISCSynonym>
                    <nciodm:CDISCSynonym>Neoplasm of the Paraganglion</nciodm:CDISCSynonym>
                    <nciodm:CDISCSynonym>Paraganglion Neoplasm</nciodm:CDISCSynonym>
                    <nciodm:CDISCSynonym>Paraganglion Tumor</nciodm:CDISCSynonym>
                    <nciodm:CDISCSynonym>Paraganglionic Neoplasm</nciodm:CDISCSynonym>
                    <nciodm:CDISCSynonym>Paraganglionic Tumor</nciodm:CDISCSynonym>
                    <nciodm:CDISCSynonym>Tumor of Paraganglion</nciodm:CDISCSynonym>
                    <nciodm:CDISCSynonym>Tumor of the Paraganglion</nciodm:CDISCSynonym>
                    <nciodm:CDISCDefinition>A neoplasm arising from paraganglia located along nerves composed of neoplastic neuroectodermal chromaffin cells, for which the malignancy status has not been established.</nciodm:CDISCDefinition>
                    <nciodm:PreferredTerm>Paraganglioma</nciodm:PreferredTerm>
                </EnumeratedItem>
                <EnumeratedItem CodedValue="PERIPHERAL CHOLANGIOCARCINOMA, MALIGNANT" nciodm:ExtCodeID="C96805">
                    <nciodm:CDISCSynonym>Peripheral Cholangiocarcinoma</nciodm:CDISCSynonym>
                    <nciodm:CDISCDefinition>A malignant intrahepatic neoplasm arising from the small interlobular bile ducts.</nciodm:CDISCDefinition>
                    <nciodm:PreferredTerm>Peripheral Intrahepatic Cholangiocarcinoma</nciodm:PreferredTerm>
                </EnumeratedItem>
                <EnumeratedItem CodedValue="PERIPHERAL NERVE SHEATH TUMOR, MALIGNANT" nciodm:ExtCodeID="C3798">
                    <nciodm:CDISCSynonym>MPNST</nciodm:CDISCSynonym>
                    <nciodm:CDISCSynonym>Malignant Neoplasm of Peripheral Nerve Sheath</nciodm:CDISCSynonym>
                    <nciodm:CDISCSynonym>Malignant Neoplasm of the Peripheral Nerve Sheath</nciodm:CDISCSynonym>
                    <nciodm:CDISCSynonym>Malignant Neurilemmoma</nciodm:CDISCSynonym>
                    <nciodm:CDISCSynonym>Malignant Neurilemoma</nciodm:CDISCSynonym>
                    <nciodm:CDISCSynonym>Malignant Peripheral Nerve Sheath Neoplasm</nciodm:CDISCSynonym>
                    <nciodm:CDISCSynonym>Malignant Peripheral Nerve Sheath Tumour</nciodm:CDISCSynonym>
                    <nciodm:CDISCSynonym>Malignant Schwannoma</nciodm:CDISCSynonym>
                    <nciodm:CDISCSynonym>Malignant Tumor of Peripheral Nerve Sheath</nciodm:CDISCSynonym>
                    <nciodm:CDISCSynonym>Malignant Tumor of the Peripheral Nerve Sheath</nciodm:CDISCSynonym>
                    <nciodm:CDISCSynonym>Neurofibrosarcoma, Malignant</nciodm:CDISCSynonym>
                    <nciodm:CDISCDefinition>A malignant neoplasm, originating from the sheaths of the peripheral nerve.</nciodm:CDISCDefinition>
                    <nciodm:PreferredTerm>Malignant Peripheral Nerve Sheath Tumor</nciodm:PreferredTerm>
                </EnumeratedItem>
                <EnumeratedItem CodedValue="PHEOCHROMOCYTOMA, BENIGN" nciodm:ExtCodeID="C48305">
                    <nciodm:CDISCDefinition>A benign neoplasm of the adrenal gland medulla.</nciodm:CDISCDefinition>
                    <nciodm:PreferredTerm>Benign Adrenal Gland Pheochromocytoma</nciodm:PreferredTerm>
                </EnumeratedItem>
                <EnumeratedItem CodedValue="PHEOCHROMOCYTOMA, COMPLEX, BENIGN" nciodm:ExtCodeID="C92181">
                    <nciodm:CDISCDefinition>A benign neoplasm of the adrenal gland medulla, composed of medullary and neuroectodermal components.</nciodm:CDISCDefinition>
                    <nciodm:PreferredTerm>Benign Adrenal Gland Composite Pheochromocytoma</nciodm:PreferredTerm>
                </EnumeratedItem>
                <EnumeratedItem CodedValue="PHEOCHROMOCYTOMA, COMPLEX, MALIGNANT" nciodm:ExtCodeID="C92184">
                    <nciodm:CDISCDefinition>A malignant neoplasm of the adrenal gland medulla, composed of medullary and neuroectodermal components.</nciodm:CDISCDefinition>
                    <nciodm:PreferredTerm>Malignant Adrenal Gland Composite Pheochromocytoma</nciodm:PreferredTerm>
                </EnumeratedItem>
                <EnumeratedItem CodedValue="PHEOCHROMOCYTOMA, COMPLEX, UNDETERMINED" nciodm:ExtCodeID="C48306">
                    <nciodm:CDISCDefinition>A neoplasm of the adrenal gland medulla, composed of medullary and neuroectodermal components, for which the malignancy status has not been established.</nciodm:CDISCDefinition>
                    <nciodm:PreferredTerm>Adrenal Gland Composite Pheochromocytoma</nciodm:PreferredTerm>
                </EnumeratedItem>
                <EnumeratedItem CodedValue="PHEOCHROMOCYTOMA, MALIGNANT" nciodm:ExtCodeID="C4220">
                    <nciodm:CDISCSynonym>Malignant Adrenal Gland Chromaffin Neoplasm</nciodm:CDISCSynonym>
                    <nciodm:CDISCSynonym>Malignant Adrenal Gland Chromaffin Paraganglioma</nciodm:CDISCSynonym>
                    <nciodm:CDISCSynonym>Malignant Adrenal Gland Chromaffin Tumor</nciodm:CDISCSynonym>
                    <nciodm:CDISCSynonym>Malignant Adrenal Gland Chromaffinoma</nciodm:CDISCSynonym>
                    <nciodm:CDISCSynonym>Malignant Adrenal Gland Paraganglioma</nciodm:CDISCSynonym>
                    <nciodm:CDISCSynonym>Malignant Adrenal Medullary Paraganglioma</nciodm:CDISCSynonym>
                    <nciodm:CDISCSynonym>Malignant Adrenal Medullary Pheochromocytoma</nciodm:CDISCSynonym>
                    <nciodm:CDISCSynonym>Malignant Adrenal Pheochromocytoma</nciodm:CDISCSynonym>
                    <nciodm:CDISCSynonym>Malignant Pheochromocytoma</nciodm:CDISCSynonym>
                    <nciodm:CDISCSynonym>Pheochromoblastoma</nciodm:CDISCSynonym>
                    <nciodm:CDISCDefinition>A malignant neoplasm of the adrenal gland medulla.</nciodm:CDISCDefinition>
                    <nciodm:PreferredTerm>Malignant Adrenal Gland Pheochromocytoma</nciodm:PreferredTerm>
                </EnumeratedItem>
                <EnumeratedItem CodedValue="PHEOCHROMOCYTOMA, UNDETERMINED" nciodm:ExtCodeID="C3326">
                    <nciodm:CDISCSynonym>Adrenal Gland Chromaffin Paraganglioma</nciodm:CDISCSynonym>
                    <nciodm:CDISCSynonym>Adrenal Gland Chromaffinoma</nciodm:CDISCSynonym>
                    <nciodm:CDISCSynonym>Adrenal Gland Paraganglioma</nciodm:CDISCSynonym>
                    <nciodm:CDISCSynonym>Adrenal Medullary Paraganglioma</nciodm:CDISCSynonym>
                    <nciodm:CDISCSynonym>Adrenal Medullary Pheochromocytoma</nciodm:CDISCSynonym>
                    <nciodm:CDISCSynonym>Adrenal Pheochromocytoma</nciodm:CDISCSynonym>
                    <nciodm:CDISCSynonym>Chromaffin Paraganglioma of the Adrenal Gland</nciodm:CDISCSynonym>
                    <nciodm:CDISCSynonym>Intraadrenal Paraganglioma</nciodm:CDISCSynonym>
                    <nciodm:CDISCSynonym>PCC</nciodm:CDISCSynonym>
                    <nciodm:CDISCSynonym>Phaeochromocytoma</nciodm:CDISCSynonym>
                    <nciodm:CDISCSynonym>Pheochromocytoma</nciodm:CDISCSynonym>
                    <nciodm:CDISCDefinition>A neoplasm of the adrenal gland medulla, for which the malignancy status has not been established.</nciodm:CDISCDefinition>
                    <nciodm:PreferredTerm>Adrenal Gland Pheochromocytoma</nciodm:PreferredTerm>
                </EnumeratedItem>
                <EnumeratedItem CodedValue="PILOMATRIXOMA, BENIGN" nciodm:ExtCodeID="C7368">
                    <nciodm:CDISCSynonym>Benign Hair Follicle Neoplasm</nciodm:CDISCSynonym>
                    <nciodm:CDISCSynonym>Benign Pilomatricoma</nciodm:CDISCSynonym>
                    <nciodm:CDISCSynonym>Benign Pilomatrixoma</nciodm:CDISCSynonym>
                    <nciodm:CDISCSynonym>Calcifying Epitherlioma of Malherbe</nciodm:CDISCSynonym>
                    <nciodm:CDISCSynonym>Pilomatrixoma</nciodm:CDISCSynonym>
                    <nciodm:CDISCDefinition>A benign adnexal neoplasm arising from hair-bearing skin surfaces.</nciodm:CDISCDefinition>
                    <nciodm:PreferredTerm>Pilomatricoma</nciodm:PreferredTerm>
                </EnumeratedItem>
                <EnumeratedItem CodedValue="PINEOBLASTOMA, MALIGNANT" nciodm:ExtCodeID="C9344">
                    <nciodm:CDISCSynonym>PNET of Pineal Gland</nciodm:CDISCSynonym>
                    <nciodm:CDISCSynonym>PNET of the Pineal Gland</nciodm:CDISCSynonym>
                    <nciodm:CDISCSynonym>Pineal Gland PNET</nciodm:CDISCSynonym>
                    <nciodm:CDISCSynonym>Pineal Gland Primitive Neuroectodermal Neoplasm</nciodm:CDISCSynonym>
                    <nciodm:CDISCSynonym>Pineal Gland Primitive Neuroectodermal Tumor</nciodm:CDISCSynonym>
                    <nciodm:CDISCSynonym>Pineal PNET</nciodm:CDISCSynonym>
                    <nciodm:CDISCSynonym>Pineal Primitive Neuroectodermal Neoplasm</nciodm:CDISCSynonym>
                    <nciodm:CDISCSynonym>Pineal Primitive Neuroectodermal Tumor</nciodm:CDISCSynonym>
                    <nciodm:CDISCSynonym>Primitive Neuroectodermal Neoplasm of Pineal Gland</nciodm:CDISCSynonym>
                    <nciodm:CDISCSynonym>Primitive Neuroectodermal Neoplasm of the Pineal Gland</nciodm:CDISCSynonym>
                    <nciodm:CDISCSynonym>Primitive Neuroectodermal Tumor of Pineal Gland</nciodm:CDISCSynonym>
                    <nciodm:CDISCSynonym>Primitive Neuroectodermal Tumor of the Pineal Gland</nciodm:CDISCSynonym>
                    <nciodm:CDISCDefinition>A poorly differentiated malignant embryonal neoplasm arising from the pineal region of the brain.</nciodm:CDISCDefinition>
                    <nciodm:PreferredTerm>Pineoblastoma</nciodm:PreferredTerm>
                </EnumeratedItem>
                <EnumeratedItem CodedValue="PINEOCYTOMA, BENIGN" nciodm:ExtCodeID="C6966">
                    <nciodm:CDISCSynonym>Benign Pinealoma</nciodm:CDISCSynonym>
                    <nciodm:CDISCSynonym>Pinealoma</nciodm:CDISCSynonym>
                    <nciodm:CDISCDefinition>A benign neoplasm of the brain arising from the pineal gland.</nciodm:CDISCDefinition>
                    <nciodm:PreferredTerm>Pineocytoma</nciodm:PreferredTerm>
                </EnumeratedItem>
                <EnumeratedItem CodedValue="PITUICYTOMA, BENIGN" nciodm:ExtCodeID="C7157">
                    <nciodm:CDISCSynonym>Neurohypophysis Neoplasm</nciodm:CDISCSynonym>
                    <nciodm:CDISCSynonym>Neurohypophysis Tumor</nciodm:CDISCSynonym>
                    <nciodm:CDISCSynonym>Posterior Pituitary Gland Tumor</nciodm:CDISCSynonym>
                    <nciodm:CDISCSynonym>Posterior Pituitary Neoplasm</nciodm:CDISCSynonym>
                    <nciodm:CDISCSynonym>Posterior Pituitary Tumor</nciodm:CDISCSynonym>
                    <nciodm:CDISCDefinition>A neoplasm arising from the posterior lobe of the pituitary gland.</nciodm:CDISCDefinition>
                    <nciodm:PreferredTerm>Posterior Pituitary Gland Neoplasm</nciodm:PreferredTerm>
                </EnumeratedItem>
                <EnumeratedItem CodedValue="PLASMA CELL TUMOR, MALIGNANT" nciodm:ExtCodeID="C4665">
                    <nciodm:CDISCSynonym>Plasma Cell Dyscrasia</nciodm:CDISCSynonym>
                    <nciodm:CDISCSynonym>Plasma Cell Tumor</nciodm:CDISCSynonym>
                    <nciodm:CDISCSynonym>Plasmacytic Neoplasm</nciodm:CDISCSynonym>
                    <nciodm:CDISCSynonym>Plasmacytic Tumor</nciodm:CDISCSynonym>
                    <nciodm:CDISCDefinition>A malignant neoplasm composed of plasma cells.</nciodm:CDISCDefinition>
                    <nciodm:PreferredTerm>Plasma Cell Neoplasm</nciodm:PreferredTerm>
                </EnumeratedItem>
                <EnumeratedItem CodedValue="POLYP, ADENOMATOUS, UNDETERMINED" nciodm:ExtCodeID="C3764">
                    <nciodm:CDISCSynonym>Polypoid Adenoma</nciodm:CDISCSynonym>
                    <nciodm:CDISCDefinition>A neoplasm, originating from glandular epithelium, exhibiting polypoid growth, for which the malignancy status has not been determined.</nciodm:CDISCDefinition>
                    <nciodm:PreferredTerm>Adenomatous Polyp</nciodm:PreferredTerm>
                </EnumeratedItem>
                <EnumeratedItem CodedValue="POLYP, BENIGN" nciodm:ExtCodeID="C112275">
                    <nciodm:CDISCDefinition>A benign polypoid neoplasm of an epithelial lining projecting into a lumen or cavity.</nciodm:CDISCDefinition>
                    <nciodm:PreferredTerm>Experimental Organism Benign Polyp</nciodm:PreferredTerm>
                </EnumeratedItem>
                <EnumeratedItem CodedValue="POLYP, ENDOMETRIAL STROMAL, BENIGN" nciodm:ExtCodeID="C6433">
                    <nciodm:CDISCSynonym>Adenoma, Endometrial</nciodm:CDISCSynonym>
                    <nciodm:CDISCSynonym>Endometrial Adenoma</nciodm:CDISCSynonym>
                    <nciodm:CDISCSynonym>Endometrial Stromal Polyp</nciodm:CDISCSynonym>
                    <nciodm:CDISCSynonym>Glandular Endometrial Polyp</nciodm:CDISCSynonym>
                    <nciodm:CDISCSynonym>Polyp of Endometrium</nciodm:CDISCSynonym>
                    <nciodm:CDISCSynonym>Polyp of the Endometrium</nciodm:CDISCSynonym>
                    <nciodm:CDISCSynonym>Polyp, Stromal</nciodm:CDISCSynonym>
                    <nciodm:CDISCDefinition>A benign polypoid neoplasm of the endometrium projecting into the endometrial cavity.</nciodm:CDISCDefinition>
                    <nciodm:PreferredTerm>Endometrial Polyp</nciodm:PreferredTerm>
                </EnumeratedItem>
                <EnumeratedItem CodedValue="POLYP, UNDETERMINED" nciodm:ExtCodeID="C3340">
                    <nciodm:CDISCDefinition>A protruding growth attached to the underlying tissue by a broad base or a thin stalk, which can be either inflammatory, hamartomatous, or neoplastic.</nciodm:CDISCDefinition>
                    <nciodm:PreferredTerm>Polyp</nciodm:PreferredTerm>
                </EnumeratedItem>
                <EnumeratedItem CodedValue="POLYP, VAGINAL, BENIGN" nciodm:ExtCodeID="C3664">
                    <nciodm:CDISCSynonym>Polyp of Vagina</nciodm:CDISCSynonym>
                    <nciodm:CDISCSynonym>Polyp of the Vagina</nciodm:CDISCSynonym>
                    <nciodm:CDISCDefinition>A benign polypoid growth arising from the vaginal wall.</nciodm:CDISCDefinition>
                    <nciodm:PreferredTerm>Vaginal Polyp</nciodm:PreferredTerm>
                </EnumeratedItem>
                <EnumeratedItem CodedValue="RETICULOSIS, MALIGNANT" nciodm:ExtCodeID="C4684">
                    <nciodm:CDISCSynonym>Angiocentric T-Cell Lymphoma</nciodm:CDISCSynonym>
                    <nciodm:CDISCDefinition>A malignant lymphoid neoplasm composed of EBV-positive NK/T cells arranged in an angiocentric pattern.</nciodm:CDISCDefinition>
                    <nciodm:PreferredTerm>Nasal Type Extranodal NK/T-Cell Lymphoma</nciodm:PreferredTerm>
                </EnumeratedItem>
                <EnumeratedItem CodedValue="RETINOBLASTOMA, MALIGNANT" nciodm:ExtCodeID="C7541">
                    <nciodm:CDISCSynonym>RB</nciodm:CDISCSynonym>
                    <nciodm:CDISCDefinition>A malignant neoplasm originating in the nuclear layer of the retina.</nciodm:CDISCDefinition>
                    <nciodm:PreferredTerm>Retinoblastoma</nciodm:PreferredTerm>
                </EnumeratedItem>
                <EnumeratedItem CodedValue="RHABDOMYOMA, BENIGN" nciodm:ExtCodeID="C3358">
                    <nciodm:CDISCDefinition>A benign neoplasm arising from skeletal or cardiac muscle, characterized by the presence of rhabdomyoblasts.</nciodm:CDISCDefinition>
                    <nciodm:PreferredTerm>Rhabdomyoma</nciodm:PreferredTerm>
                </EnumeratedItem>
                <EnumeratedItem CodedValue="RHABDOMYOSARCOMA, MALIGNANT" nciodm:ExtCodeID="C3359">
                    <nciodm:CDISCDefinition>A malignant mesenchymal neoplasm arising from skeletal muscle.</nciodm:CDISCDefinition>
                    <nciodm:PreferredTerm>Rhabdomyosarcoma</nciodm:PreferredTerm>
                </EnumeratedItem>
                <EnumeratedItem CodedValue="SARCOMA, GRANULOCYTIC, MALIGNANT" nciodm:ExtCodeID="C35815">
                    <nciodm:CDISCDefinition>A malignant neoplasm composed of myeloblasts, neutrophils and neutrophil precursors.</nciodm:CDISCDefinition>
                    <nciodm:PreferredTerm>Granulocytic Sarcoma</nciodm:PreferredTerm>
                </EnumeratedItem>
                <EnumeratedItem CodedValue="SARCOMA, HISTIOCYTIC, MALIGNANT" nciodm:ExtCodeID="C27349">
                    <nciodm:CDISCDefinition>A malignant neoplasm composed of cells resembling histiocytes.</nciodm:CDISCDefinition>
                    <nciodm:PreferredTerm>Histiocytic Sarcoma</nciodm:PreferredTerm>
                </EnumeratedItem>
                <EnumeratedItem CodedValue="SARCOMA, LEPTOMENINGEAL, MALIGNANT" nciodm:ExtCodeID="C8312">
                    <nciodm:CDISCSynonym>Sarcoma of Leptomeninges</nciodm:CDISCSynonym>
                    <nciodm:CDISCSynonym>Sarcoma of the Leptomeninges</nciodm:CDISCSynonym>
                    <nciodm:CDISCSynonym>Sarcoma, Meningeal</nciodm:CDISCSynonym>
                    <nciodm:CDISCDefinition>A malignant mesenchymal neoplasm arising from the leptomeninges.</nciodm:CDISCDefinition>
                    <nciodm:PreferredTerm>Leptomeningeal Sarcoma</nciodm:PreferredTerm>
                </EnumeratedItem>
                <EnumeratedItem CodedValue="SARCOMA, MALIGNANT" nciodm:ExtCodeID="C9118">
                    <nciodm:CDISCSynonym>Mesenchymal Tumor, Malignant</nciodm:CDISCSynonym>
                    <nciodm:CDISCSynonym>Sarcoma</nciodm:CDISCSynonym>
                    <nciodm:CDISCSynonym>Sarcoma of Soft Tissue and Bone</nciodm:CDISCSynonym>
                    <nciodm:CDISCSynonym>Sarcoma of the Soft Tissue and Bone</nciodm:CDISCSynonym>
                    <nciodm:CDISCDefinition>A malignant mesenchymal neoplasm. A general term for which the transformed cell type has not been specified.</nciodm:CDISCDefinition>
                    <nciodm:PreferredTerm>Sarcoma</nciodm:PreferredTerm>
                </EnumeratedItem>
                <EnumeratedItem CodedValue="SARCOMA, MYELOID, MALIGNANT" nciodm:ExtCodeID="C3520">
                    <nciodm:CDISCSynonym>Chloroma</nciodm:CDISCSynonym>
                    <nciodm:CDISCSynonym>Extramedullary Myeloid Tumor</nciodm:CDISCSynonym>
                    <nciodm:CDISCDefinition>A malignant neoplasm composed of myeloblasts or immature myeloid cells. It occurs in extramedullary sites or the bone.</nciodm:CDISCDefinition>
                    <nciodm:PreferredTerm>Myeloid Sarcoma</nciodm:PreferredTerm>
                </EnumeratedItem>
                <EnumeratedItem CodedValue="SARCOMA, SYNOVIAL, MALIGNANT" nciodm:ExtCodeID="C3400">
                    <nciodm:CDISCSynonym>SS</nciodm:CDISCSynonym>
                    <nciodm:CDISCDefinition>A malignant neoplasm that usually arises in the synovial membranes of the joints and the synovial cells of the tendons and bursae.</nciodm:CDISCDefinition>
                    <nciodm:PreferredTerm>Synovial Sarcoma</nciodm:PreferredTerm>
                </EnumeratedItem>
                <EnumeratedItem CodedValue="SARCOMA, UNDIFFERENTIATED, MALIGNANT" nciodm:ExtCodeID="C27096">
                    <nciodm:CDISCSynonym>Embryonal Sarcoma, Undifferentiated</nciodm:CDISCSynonym>
                    <nciodm:CDISCDefinition>A rare malignant neoplasm of the liver that is most common in youth.</nciodm:CDISCDefinition>
                    <nciodm:PreferredTerm>Undifferentiated (Embryonal) Sarcoma</nciodm:PreferredTerm>
                </EnumeratedItem>
                <EnumeratedItem CodedValue="SCHWANNOMA, BENIGN" nciodm:ExtCodeID="C3269">
                    <nciodm:CDISCSynonym>Neurilemmoma</nciodm:CDISCSynonym>
                    <nciodm:CDISCSynonym>Neurinoma</nciodm:CDISCSynonym>
                    <nciodm:CDISCSynonym>Schwannoma</nciodm:CDISCSynonym>
                    <nciodm:CDISCSynonym>Schwannoma (Who Grade I)</nciodm:CDISCSynonym>
                    <nciodm:CDISCDefinition>A benign neoplasm of the peripheral nervous system composed of well-differentiated Schwann cells.</nciodm:CDISCDefinition>
                    <nciodm:PreferredTerm>Schwannoma</nciodm:PreferredTerm>
                </EnumeratedItem>
                <EnumeratedItem CodedValue="SEMINOMA, BENIGN" nciodm:ExtCodeID="C112276">
                    <nciodm:CDISCDefinition>A benign germ cell neoplasm of the testis.</nciodm:CDISCDefinition>
                    <nciodm:PreferredTerm>Experimental Organism Benign Seminoma</nciodm:PreferredTerm>
                </EnumeratedItem>
                <EnumeratedItem CodedValue="SEMINOMA, MALIGNANT" nciodm:ExtCodeID="C9309">
                    <nciodm:CDISCSynonym>Seminoma</nciodm:CDISCSynonym>
                    <nciodm:CDISCSynonym>Seminoma, Pure</nciodm:CDISCSynonym>
                    <nciodm:CDISCDefinition>A malignant germ cell neoplasm of the testis.</nciodm:CDISCDefinition>
                    <nciodm:PreferredTerm>Seminoma</nciodm:PreferredTerm>
                </EnumeratedItem>
                <EnumeratedItem CodedValue="SERTOLI CELL TUMOR, BENIGN" nciodm:ExtCodeID="C67012">
                    <nciodm:CDISCSynonym>Benign Androblastoma</nciodm:CDISCSynonym>
                    <nciodm:CDISCDefinition>A benign neoplasm of the testis or ovary, originating from Sertoli cells.</nciodm:CDISCDefinition>
                    <nciodm:PreferredTerm>Benign Sertoli Cell Tumor</nciodm:PreferredTerm>
                </EnumeratedItem>
                <EnumeratedItem CodedValue="SERTOLI CELL TUMOR, MALIGNANT" nciodm:ExtCodeID="C67006">
                    <nciodm:CDISCSynonym>Malignant Androblastoma</nciodm:CDISCSynonym>
                    <nciodm:CDISCDefinition>A malignant neoplasm of the testis or ovary, originating from Sertoli cells.</nciodm:CDISCDefinition>
                    <nciodm:PreferredTerm>Malignant Sertoli Cell Tumor</nciodm:PreferredTerm>
                </EnumeratedItem>
                <EnumeratedItem CodedValue="SERTOLI CELL TUMOR, UNDETERMINED" nciodm:ExtCodeID="C98794">
                    <nciodm:CDISCDefinition>An ovarian neoplasm comprising Sertoli cells in which the malignancy status has not been established.</nciodm:CDISCDefinition>
                    <nciodm:PreferredTerm>Undetermined Sertoli Cell Tumor</nciodm:PreferredTerm>
                </EnumeratedItem>
                <EnumeratedItem CodedValue="STROMAL NEPHROMA, MALIGNANT" nciodm:ExtCodeID="C6569">
                    <nciodm:CDISCSynonym>Cmn</nciodm:CDISCSynonym>
                    <nciodm:CDISCSynonym>Mesoblastic Nephroma</nciodm:CDISCSynonym>
                    <nciodm:CDISCDefinition>A congenital malignant neoplasm of the kidney characterized by the presence of fibroblastic cells.</nciodm:CDISCDefinition>
                    <nciodm:PreferredTerm>Congenital Mesoblastic Nephroma</nciodm:PreferredTerm>
                </EnumeratedItem>
                <EnumeratedItem CodedValue="STROMAL SARCOMA, ENDOMETRIAL, MALIGNANT" nciodm:ExtCodeID="C8973">
                    <nciodm:CDISCSynonym>ESS</nciodm:CDISCSynonym>
                    <nciodm:CDISCDefinition>A malignant, mesenchymal tumor of the uterine stroma.</nciodm:CDISCDefinition>
                    <nciodm:PreferredTerm>Endometrioid Stromal Sarcoma</nciodm:PreferredTerm>
                </EnumeratedItem>
                <EnumeratedItem CodedValue="STROMAL SARCOMA, MALIGNANT" nciodm:ExtCodeID="C6926">
                    <nciodm:CDISCSynonym>Stromal Tumor, Malignant</nciodm:CDISCSynonym>
                    <nciodm:CDISCDefinition>A malignant neoplasm characterized by the presence of atypical mesenchymal-stromal cells.</nciodm:CDISCDefinition>
                    <nciodm:PreferredTerm>Stromal Sarcoma</nciodm:PreferredTerm>
                </EnumeratedItem>
                <EnumeratedItem CodedValue="STROMAL TUMOR, BENIGN" nciodm:ExtCodeID="C114113">
                    <nciodm:CDISCDefinition>A benign neoplasm composed of mesenchymal stromal cells.</nciodm:CDISCDefinition>
                    <nciodm:PreferredTerm>Experimental Organism Benign Stromal Tumor Neoplasm</nciodm:PreferredTerm>
                </EnumeratedItem>
                <EnumeratedItem CodedValue="STROMAL TUMOR, GONADAL, MALIGNANT" nciodm:ExtCodeID="C67561">
                    <nciodm:CDISCSynonym>Sex Cord Stromal Tumor, Malignant</nciodm:CDISCSynonym>
                    <nciodm:CDISCDefinition>A malignant neoplasm originating from the gonadal sex cord stroma.</nciodm:CDISCDefinition>
                    <nciodm:PreferredTerm>Malignant Sex Cord-Stromal Tumor</nciodm:PreferredTerm>
                </EnumeratedItem>
                <EnumeratedItem CodedValue="STROMAL TUMOR, GONADAL, UNDETERMINED" nciodm:ExtCodeID="C3794">
                    <nciodm:CDISCSynonym>Sex Cord-Stromal Neoplasm</nciodm:CDISCSynonym>
                    <nciodm:CDISCSynonym>Sex Cord-Stromal Tumor, Undetermined</nciodm:CDISCSynonym>
                    <nciodm:CDISCDefinition>A neoplasm originating from the gonadal sex cord stroma, for which the status of malignancy has not been determined.</nciodm:CDISCDefinition>
                    <nciodm:PreferredTerm>Sex Cord-Stromal Tumor</nciodm:PreferredTerm>
                </EnumeratedItem>
                <EnumeratedItem CodedValue="SUBEPENDYMOMA, BENIGN" nciodm:ExtCodeID="C3795">
                    <nciodm:CDISCSynonym>Subependymal Glioma</nciodm:CDISCSynonym>
                    <nciodm:CDISCSynonym>Who Grade I Ependymal Neoplasm</nciodm:CDISCSynonym>
                    <nciodm:CDISCSynonym>Who Grade I Ependymal Tumor</nciodm:CDISCSynonym>
                    <nciodm:CDISCDefinition>A benign neoplasm of the brain localized in the vicinity of a ventricular wall and is composed of glial tumor cell clusters embedded in an abundant fibrillary matrix with frequent microcystic changes.</nciodm:CDISCDefinition>
                    <nciodm:PreferredTerm>Subependymoma</nciodm:PreferredTerm>
                </EnumeratedItem>
                <EnumeratedItem CodedValue="SYNOVIOMA, BENIGN" nciodm:ExtCodeID="C3829">
                    <nciodm:CDISCSynonym>Benign Neoplasm of Synovium</nciodm:CDISCSynonym>
                    <nciodm:CDISCSynonym>Benign Neoplasm of the Synovium</nciodm:CDISCSynonym>
                    <nciodm:CDISCSynonym>Benign Synovial Tumor</nciodm:CDISCSynonym>
                    <nciodm:CDISCSynonym>Benign Synovioma</nciodm:CDISCSynonym>
                    <nciodm:CDISCSynonym>Benign Tumor of Synovium</nciodm:CDISCSynonym>
                    <nciodm:CDISCSynonym>Benign Tumor of the Synovium</nciodm:CDISCSynonym>
                    <nciodm:CDISCDefinition>A benign neoplasm arising from the synovial membrane.</nciodm:CDISCDefinition>
                    <nciodm:PreferredTerm>Benign Synovial Neoplasm</nciodm:PreferredTerm>
                </EnumeratedItem>
                <EnumeratedItem CodedValue="TERATOMA, BENIGN" nciodm:ExtCodeID="C114114">
                    <nciodm:CDISCDefinition>A benign germ-cell neoplasm derived from pluripotent cells and consisting of components from one or more of the three germ-cell layers.</nciodm:CDISCDefinition>
                    <nciodm:PreferredTerm>Experimental Organism Benign Teratoma Neoplasm</nciodm:PreferredTerm>
                </EnumeratedItem>
                <EnumeratedItem CodedValue="TERATOMA, MALIGNANT" nciodm:ExtCodeID="C4286">
                    <nciodm:CDISCSynonym>Immature Teratoma</nciodm:CDISCSynonym>
                    <nciodm:CDISCDefinition>A malignant germ-cell neoplasm derived from pluripotent cells and consisting of components from one or more of the three germ-cell layers.</nciodm:CDISCDefinition>
                    <nciodm:PreferredTerm>Immature Teratoma</nciodm:PreferredTerm>
                </EnumeratedItem>
                <EnumeratedItem CodedValue="TERATOMA, UNDETERMINED" nciodm:ExtCodeID="C3403">
                    <nciodm:CDISCDefinition>A germ-cell neoplasm derived from pluripotent cells and consisting of components from one or more of the three germ-cell layers, for which the malignancy status has not been established.</nciodm:CDISCDefinition>
                    <nciodm:PreferredTerm>Teratoma</nciodm:PreferredTerm>
                </EnumeratedItem>
                <EnumeratedItem CodedValue="THECOMA, BENIGN" nciodm:ExtCodeID="C5219">
                    <nciodm:CDISCSynonym>Benign Ovarian Thecal Cell Neoplasm</nciodm:CDISCSynonym>
                    <nciodm:CDISCSynonym>Benign Ovarian Thecal Cell Tumor</nciodm:CDISCSynonym>
                    <nciodm:CDISCSynonym>Benign Thecal Cell Neoplasm of Ovary</nciodm:CDISCSynonym>
                    <nciodm:CDISCSynonym>Benign Thecal Cell Neoplasm of the Ovary</nciodm:CDISCSynonym>
                    <nciodm:CDISCSynonym>Benign Thecal Cell Tumor of Ovary</nciodm:CDISCSynonym>
                    <nciodm:CDISCSynonym>Benign Thecal Cell Tumor of the Ovary</nciodm:CDISCSynonym>
                    <nciodm:CDISCSynonym>Benign Thecoma of Ovary</nciodm:CDISCSynonym>
                    <nciodm:CDISCSynonym>Benign Thecoma of the Ovary</nciodm:CDISCSynonym>
                    <nciodm:CDISCSynonym>Thecal Cell Tumor, Benign</nciodm:CDISCSynonym>
                    <nciodm:CDISCDefinition>A benign sex-cord neoplasm of the ovary, originating from theca cells.</nciodm:CDISCDefinition>
                    <nciodm:PreferredTerm>Benign Ovarian Thecoma</nciodm:PreferredTerm>
                </EnumeratedItem>
                <EnumeratedItem CodedValue="THECOMA, OVARIAN, MALIGNANT" nciodm:ExtCodeID="C6929">
                    <nciodm:CDISCSynonym>Malignant Ovarian Thecal Cell Neoplasm</nciodm:CDISCSynonym>
                    <nciodm:CDISCSynonym>Malignant Ovarian Thecal Cell Tumor</nciodm:CDISCSynonym>
                    <nciodm:CDISCSynonym>Malignant Thecal Cell Neoplasm of Ovary</nciodm:CDISCSynonym>
                    <nciodm:CDISCSynonym>Malignant Thecal Cell Neoplasm of the Ovary</nciodm:CDISCSynonym>
                    <nciodm:CDISCSynonym>Malignant Thecal Cell Tumor of Ovary</nciodm:CDISCSynonym>
                    <nciodm:CDISCSynonym>Malignant Thecal Cell Tumor of the Ovary</nciodm:CDISCSynonym>
                    <nciodm:CDISCSynonym>Malignant Thecoma of Ovary</nciodm:CDISCSynonym>
                    <nciodm:CDISCSynonym>Malignant Thecoma of the Ovary</nciodm:CDISCSynonym>
                    <nciodm:CDISCSynonym>Thecoma, Malignant</nciodm:CDISCSynonym>
                    <nciodm:CDISCDefinition>A malignant sex-cord neoplasm of the ovary, originating from theca cells.</nciodm:CDISCDefinition>
                    <nciodm:PreferredTerm>Malignant Ovarian Thecoma</nciodm:PreferredTerm>
                </EnumeratedItem>
                <EnumeratedItem CodedValue="THYMOMA, BENIGN" nciodm:ExtCodeID="C114115">
                    <nciodm:CDISCDefinition>A benign neoplasm of the thymus, originating from epithelial thymus cells.</nciodm:CDISCDefinition>
                    <nciodm:PreferredTerm>Experimental Organism Benign Thymoma Neoplasm</nciodm:PreferredTerm>
                </EnumeratedItem>
                <EnumeratedItem CodedValue="THYMOMA, MALIGNANT" nciodm:ExtCodeID="C7612">
                    <nciodm:CDISCDefinition>A malignant neoplasm of the thymus, originating from epithelial thymus cells.</nciodm:CDISCDefinition>
                    <nciodm:PreferredTerm>Malignant Thymoma</nciodm:PreferredTerm>
                </EnumeratedItem>
                <EnumeratedItem CodedValue="THYMOMA, UNDETERMINED" nciodm:ExtCodeID="C3411">
                    <nciodm:CDISCDefinition>A neoplasm of the thymus, originating from epithelial thymus cells, for which the malignancy status has not been established.</nciodm:CDISCDefinition>
                    <nciodm:PreferredTerm>Thymoma</nciodm:PreferredTerm>
                </EnumeratedItem>
                <EnumeratedItem CodedValue="TRICHOEPITHELIOMA, BENIGN" nciodm:ExtCodeID="C27132">
                    <nciodm:CDISCSynonym>Brooke's Tumor</nciodm:CDISCSynonym>
                    <nciodm:CDISCSynonym>Trichoepithelioma</nciodm:CDISCSynonym>
                    <nciodm:CDISCSynonym>Trichogenic Adnexal Tumor</nciodm:CDISCSynonym>
                    <nciodm:CDISCSynonym>Trichogenic Trichoblastoma</nciodm:CDISCSynonym>
                    <nciodm:CDISCDefinition>A benign hair follicle neoplasm with trichoblastic differentiation.</nciodm:CDISCDefinition>
                    <nciodm:PreferredTerm>Trichoblastoma</nciodm:PreferredTerm>
                </EnumeratedItem>
                <EnumeratedItem CodedValue="YOLK SAC TUMOR, BENIGN" nciodm:ExtCodeID="C84357">
                    <nciodm:CDISCDefinition>A benign epithelial neoplasm arising from the yolk sac.</nciodm:CDISCDefinition>
                    <nciodm:PreferredTerm>Yolk Sac Adenoma</nciodm:PreferredTerm>
                </EnumeratedItem>
                <EnumeratedItem CodedValue="YOLK SAC TUMOR, MALIGNANT" nciodm:ExtCodeID="C3011">
                    <nciodm:CDISCSynonym>Endodermal Sinus Neoplasm</nciodm:CDISCSynonym>
                    <nciodm:CDISCSynonym>Endodermal Sinus Tumor</nciodm:CDISCSynonym>
                    <nciodm:CDISCSynonym>Yolk Sac Neoplasm</nciodm:CDISCSynonym>
                    <nciodm:CDISCSynonym>Yolk Sac Tumor Site Unspecified</nciodm:CDISCSynonym>
                    <nciodm:CDISCDefinition>A non-seminomatous malignant germ cell tumor composed of primitive germ cells and which produce an eosinophilic substance (alpha-fetoprotein).</nciodm:CDISCDefinition>
                    <nciodm:PreferredTerm>Yolk Sac Tumor</nciodm:PreferredTerm>
                </EnumeratedItem>
                <nciodm:CDISCSubmissionValue>NEOPLASM</nciodm:CDISCSubmissionValue>
                <nciodm:CDISCSynonym>Neoplasm Type</nciodm:CDISCSynonym>
                <nciodm:PreferredTerm>CDISC SEND Tumor Findings Results Terminology</nciodm:PreferredTerm>
            </CodeList>
            
