<CodeList xmlns="http://www.cdisc.org/ns/odm/v1.3" xmlns:nciodm="http://ncicb.nci.nih.gov/xml/odm/EVS/CDISC" xmlns:xs="http://www.w3.org/2001/XMLSchema-instance" OID="CL.C125922.MIFTSDTL" Name="Microscopic Findings Test Details" DataType="text" nciodm:ExtCodeID="C125922" nciodm:CodeListExtensible="Yes">
                <Description>
                    <TranslatedText xml:lang="en">Terminology relevant to the additional descriptions of the test being performed to produce the microscopic result.</TranslatedText>
                </Description>
                <EnumeratedItem CodedValue="AJCC TUMOR GRADE" nciodm:ExtCodeID="C135461">
                    <nciodm:CDISCDefinition>A grading system developed by the American Joint Committee on Cancer (AJCC) and assigned based on the degree of cellular differentiation within a tumor sample. (American Joint Committee on Cancer. AJCC Cancer Staging Manual. 7th ed. New York, NY: Springer; 2010.)</nciodm:CDISCDefinition>
                    <nciodm:PreferredTerm>AJCC Tumor Grade</nciodm:PreferredTerm>
                </EnumeratedItem>
                <EnumeratedItem CodedValue="ALLRED PROPORTION POSITIVE SCORE" nciodm:ExtCodeID="C125985">
                    <nciodm:CDISCDefinition>A score developed by Allred et al. (1998) and assigned based on the percent positivity of cells for a particular protein (Allred DC, Harvey JM, Berardo M, Clark GM. Prognostic and predictive factors in breast cancer by immunohistochemical analysis. Mod Pathol. 1998 Feb;11(2):155-68).</nciodm:CDISCDefinition>
                    <nciodm:PreferredTerm>Allred Proportion Positive Score</nciodm:PreferredTerm>
                </EnumeratedItem>
                <EnumeratedItem CodedValue="ALLRED STAINING INTENSITY SCORE" nciodm:ExtCodeID="C125986">
                    <nciodm:CDISCDefinition>A score developed by Allred et al. (1998) and assigned based on the average staining intensity of cells for a particular protein (Allred DC, Harvey JM, Berardo M, Clark GM. Prognostic and predictive factors in breast cancer by immunohistochemical analysis. Mod Pathol. 1998 Feb;11(2):155-68).</nciodm:CDISCDefinition>
                    <nciodm:PreferredTerm>Allred Average Staining Intensity Score</nciodm:PreferredTerm>
                </EnumeratedItem>
                <EnumeratedItem CodedValue="ALLRED TOTAL SCORE" nciodm:ExtCodeID="C125987">
                    <nciodm:CDISCDefinition>The histopathological evaluation of staining in tissue based on the Allred scoring system (Allred DC, Harvey JM, Berardo M, Clark GM. Prognostic and predictive factors in breast cancer by immunohistochemical analysis. Mod Pathol. 1998 Feb;11(2):155-68).</nciodm:CDISCDefinition>
                    <nciodm:PreferredTerm>Allred Total Score</nciodm:PreferredTerm>
                </EnumeratedItem>
                <EnumeratedItem CodedValue="BANFF QUANTITATIVE CRITERIA SCORE RENAL" nciodm:ExtCodeID="C135462">
                    <nciodm:CDISCDefinition>A score originally developed by Solez et al. (1993) and assigned based on the histologic evaluation of kidney allograft biopsies according to the Banff Working Classification of Renal Allograft Pathology.</nciodm:CDISCDefinition>
                    <nciodm:PreferredTerm>Banff Renal Quantitative Criteria Score</nciodm:PreferredTerm>
                </EnumeratedItem>
                <EnumeratedItem CodedValue="BATTS-LUDWIG FIBROSIS SCORE" nciodm:ExtCodeID="C119570">
                    <nciodm:CDISCSynonym>Batts-Ludwig Fibrosis Score</nciodm:CDISCSynonym>
                    <nciodm:CDISCDefinition>The histopathological evaluation of the liver based on the Batts-Ludwig scoring system.</nciodm:CDISCDefinition>
                    <nciodm:PreferredTerm>Batts-Ludwig Fibrosis Score</nciodm:PreferredTerm>
                </EnumeratedItem>
                <EnumeratedItem CodedValue="ENHANCED LIVER FIBROSIS SCORE" nciodm:ExtCodeID="C132429">
                    <nciodm:CDISCSynonym>ELF</nciodm:CDISCSynonym>
                    <nciodm:CDISCDefinition>The histopathological evaluation of the liver based on the enhanced liver fibrosis scoring system.</nciodm:CDISCDefinition>
                    <nciodm:PreferredTerm>Enhanced Liver Fibrosis Score</nciodm:PreferredTerm>
                </EnumeratedItem>
                <EnumeratedItem CodedValue="GLEASON PRIMARY SCORE" nciodm:ExtCodeID="C48603">
                    <nciodm:CDISCDefinition>The most prevalent Gleason pattern in a prostate biopsy or prostatectomy specimen. (Gleason, D. F. (1977). The Veteran's Administration Cooperative Urologic Research Group: histologic grading and clinical staging of prostatic carcinoma. In Tannenbaum, M. Urologic Pathology: The Prostate. Philadelphia: Lea and Febiger. pp. 171-198.)</nciodm:CDISCDefinition>
                    <nciodm:PreferredTerm>Primary Gleason Pattern</nciodm:PreferredTerm>
                </EnumeratedItem>
                <EnumeratedItem CodedValue="GLEASON SECONDARY SCORE" nciodm:ExtCodeID="C48604">
                    <nciodm:CDISCDefinition>The second most prevalent Gleason pattern in a prostate biopsy or prostatectomy specimen. (Gleason, D. F. (1977). The Veteran's Administration Cooperative Urologic Research Group: histologic grading and clinical staging of prostatic carcinoma. In Tannenbaum, M. Urologic Pathology: The Prostate. Philadelphia: Lea and Febiger. pp. 171-198.)</nciodm:CDISCDefinition>
                    <nciodm:PreferredTerm>Secondary Gleason Pattern</nciodm:PreferredTerm>
                </EnumeratedItem>
                <EnumeratedItem CodedValue="GLEASON TOTAL SUM" nciodm:ExtCodeID="C48602">
                    <nciodm:CDISCDefinition>The sum of the primary and secondary Gleason scores. If three patterns are identified, it is the sum of the primary pattern score and the score of the least well-differentiated pattern. (Gleason, D. F. (1977). The Veteran's Administration Cooperative Urologic Research Group: histologic grading and clinical staging of prostatic carcinoma. In Tannenbaum, M. Urologic Pathology: The Prostate. Philadelphia: Lea and Febiger. pp. 171-198.)</nciodm:CDISCDefinition>
                    <nciodm:PreferredTerm>Total Gleason Score for Prostate Cancer</nciodm:PreferredTerm>
                </EnumeratedItem>
                <EnumeratedItem CodedValue="H SCORE TOTAL SCORE" nciodm:ExtCodeID="C125988">
                    <nciodm:CDISCDefinition>The histopathological evaluation of staining in tissue based on the H Score scoring system (McCarty KS Jr, Miller LS, Cox EB, et al. Estrogen receptor analyses: correlation of biochemical and immunohistochemical methods using monoclonal antireceptor antibodies. Arch Pathol Lab Med. 1985;109(8):716-721).</nciodm:CDISCDefinition>
                    <nciodm:PreferredTerm>H Score Total Score</nciodm:PreferredTerm>
                </EnumeratedItem>
                <EnumeratedItem CodedValue="ISHAK FIBROSIS SCORE" nciodm:ExtCodeID="C95149">
                    <nciodm:CDISCSynonym>Ishak Fibrosis Score</nciodm:CDISCSynonym>
                    <nciodm:CDISCDefinition>The histopathological evaluation of the liver based on the Ishak scoring system.</nciodm:CDISCDefinition>
                    <nciodm:PreferredTerm>Ishak Score</nciodm:PreferredTerm>
                </EnumeratedItem>
                <EnumeratedItem CodedValue="KNODELL FIBROSIS SCORE" nciodm:ExtCodeID="C119571">
                    <nciodm:CDISCSynonym>Knodell Fibrosis Score</nciodm:CDISCSynonym>
                    <nciodm:CDISCDefinition>The histopathological evaluation of the liver based on the Knodell scoring system.</nciodm:CDISCDefinition>
                    <nciodm:PreferredTerm>Knodell Fibrosis Score</nciodm:PreferredTerm>
                </EnumeratedItem>
                <EnumeratedItem CodedValue="METAVIR FIBROSIS SCORE" nciodm:ExtCodeID="C119572">
                    <nciodm:CDISCSynonym>Metavir Fibrosis Score</nciodm:CDISCSynonym>
                    <nciodm:CDISCDefinition>The histopathological evaluation of the liver based on the Meta-analysis of Histological Data in Viral Hepatitis (Metavir) scoring system.</nciodm:CDISCDefinition>
                    <nciodm:PreferredTerm>METAVIR Fibrosis Score</nciodm:PreferredTerm>
                </EnumeratedItem>
                <EnumeratedItem CodedValue="PERCENT POSITIVE CELL" nciodm:ExtCodeID="C70460">
                    <nciodm:CDISCDefinition>A measurement of the proportion of cells that are positive for a given protein.</nciodm:CDISCDefinition>
                    <nciodm:PreferredTerm>Percent of Positive Cells</nciodm:PreferredTerm>
                </EnumeratedItem>
                <EnumeratedItem CodedValue="RECEPTOR OVERALL STATUS" nciodm:ExtCodeID="C125989">
                    <nciodm:CDISCDefinition>An assessment of the status of a biological specimen with regards to a given receptor.</nciodm:CDISCDefinition>
                    <nciodm:PreferredTerm>Receptor Overall Status</nciodm:PreferredTerm>
                </EnumeratedItem>
                <EnumeratedItem CodedValue="SCHEUER FIBROSIS SCORE" nciodm:ExtCodeID="C119573">
                    <nciodm:CDISCSynonym>Scheuer Fibrosis Score</nciodm:CDISCSynonym>
                    <nciodm:CDISCDefinition>The histopathological evaluation of the liver based on the Scheuer scoring system.</nciodm:CDISCDefinition>
                    <nciodm:PreferredTerm>Scheuer Fibrosis Score</nciodm:PreferredTerm>
                </EnumeratedItem>
                <EnumeratedItem CodedValue="STAINING INTENSITY" nciodm:ExtCodeID="C127762">
                    <nciodm:CDISCDefinition>The degree or magnitude of staining within a biological specimen.</nciodm:CDISCDefinition>
                    <nciodm:PreferredTerm>Staining Intensity</nciodm:PreferredTerm>
                </EnumeratedItem>
                <nciodm:CDISCSubmissionValue>MIFTSDTL</nciodm:CDISCSubmissionValue>
                <nciodm:CDISCSynonym>Microscopic Findings Test Details</nciodm:CDISCSynonym>
                <nciodm:PreferredTerm>CDISC SDTM Microscopic Findings Test Detail Terminology</nciodm:PreferredTerm>
            </CodeList>
            
