<CodeList xmlns="http://www.cdisc.org/ns/odm/v1.3" xmlns:nciodm="http://ncicb.nci.nih.gov/xml/odm/EVS/CDISC" xmlns:xs="http://www.w3.org/2001/XMLSchema-instance" OID="CL.C67154.LBTEST" Name="Laboratory Test Name" DataType="text" nciodm:ExtCodeID="C67154" nciodm:CodeListExtensible="Yes">
                <Description>
                    <TranslatedText xml:lang="en">Terminology used for laboratory test names of the CDISC Study Data Tabulation Model.</TranslatedText>
                </Description>
                <EnumeratedItem CodedValue="1, 25-Dihydroxyvitamin D" nciodm:ExtCodeID="C92267">
                    <nciodm:CDISCSynonym>1, 25-Dihydroxyvitamin D</nciodm:CDISCSynonym>
                    <nciodm:CDISCSynonym>Active Vitamin D</nciodm:CDISCSynonym>
                    <nciodm:CDISCDefinition>A measurement of the total active Vitamin D in a biological specimen.</nciodm:CDISCDefinition>
                    <nciodm:PreferredTerm>1, 25-Dihydroxyvitamin D Measurement</nciodm:PreferredTerm>
                </EnumeratedItem>
                <EnumeratedItem CodedValue="1,5-Anhydroglucitol" nciodm:ExtCodeID="C124334">
                    <nciodm:CDISCSynonym>1,5-Anhydroglucitol</nciodm:CDISCSynonym>
                    <nciodm:CDISCDefinition>A measurement of the 1,5-anhydroglucitol in a biological specimen.</nciodm:CDISCDefinition>
                    <nciodm:PreferredTerm>1,5-Anhydroglucitol Measurement</nciodm:PreferredTerm>
                </EnumeratedItem>
                <EnumeratedItem CodedValue="11-Dehydro-Thromboxane B2" nciodm:ExtCodeID="C103344">
                    <nciodm:CDISCSynonym>11-Dehydro-Thromboxane B2</nciodm:CDISCSynonym>
                    <nciodm:CDISCDefinition>A measurement of the 11-dehydro-thromboxane B2 in a biological specimen.</nciodm:CDISCDefinition>
                    <nciodm:PreferredTerm>11-Dehydro-Thromboxane B2 Measurement</nciodm:PreferredTerm>
                </EnumeratedItem>
                <EnumeratedItem CodedValue="25-Hydroxyvitamin D" nciodm:ExtCodeID="C92268">
                    <nciodm:CDISCSynonym>25-Hydroxyvitamin D</nciodm:CDISCSynonym>
                    <nciodm:CDISCSynonym>Inactive Vitamin D</nciodm:CDISCSynonym>
                    <nciodm:CDISCDefinition>A measurement of the total inactive Vitamin D in a biological specimen.</nciodm:CDISCDefinition>
                    <nciodm:PreferredTerm>25-Hydroxyvitamin D Measurement</nciodm:PreferredTerm>
                </EnumeratedItem>
                <EnumeratedItem CodedValue="3,4-Dihydroxyphenylacetic Acid" nciodm:ExtCodeID="C103345">
                    <nciodm:CDISCSynonym>3,4-Dihydroxyphenylacetic Acid</nciodm:CDISCSynonym>
                    <nciodm:CDISCDefinition>A measurement of the 3,4-dihydroxyphenylacetic acid in a biological specimen.</nciodm:CDISCDefinition>
                    <nciodm:PreferredTerm>3,4-Dihydroxyphenylacetic Acid Measurement</nciodm:PreferredTerm>
                </EnumeratedItem>
                <EnumeratedItem CodedValue="3,4-Dihydroxyphenylglycol" nciodm:ExtCodeID="C101017">
                    <nciodm:CDISCSynonym>3,4-Dihydroxyphenylglycol</nciodm:CDISCSynonym>
                    <nciodm:CDISCSynonym>3.4 Dihydroxyphenylglycol</nciodm:CDISCSynonym>
                    <nciodm:CDISCDefinition>A measurement of the catecholamine metabolite, 3,4-Dihydroxyphenylglycol in a biological specimen.</nciodm:CDISCDefinition>
                    <nciodm:PreferredTerm>3,4-Dihydroxyphenylglycol Measurement</nciodm:PreferredTerm>
                </EnumeratedItem>
                <EnumeratedItem CodedValue="3,4-methylenedioxymethamphetamine" nciodm:ExtCodeID="C75359">
                    <nciodm:CDISCSynonym>3,4-methylenedioxymethamphetamine</nciodm:CDISCSynonym>
                    <nciodm:CDISCSynonym>Ecstasy</nciodm:CDISCSynonym>
                    <nciodm:CDISCDefinition>A measurement of the 3,4-methylenedioxymethamphetamine (MDMA) in a biological specimen.</nciodm:CDISCDefinition>
                    <nciodm:PreferredTerm>3,4-Methylenedioxymethamphetamine Measurement</nciodm:PreferredTerm>
                </EnumeratedItem>
                <EnumeratedItem CodedValue="5 Prime Nucleotidase" nciodm:ExtCodeID="C79437">
                    <nciodm:CDISCSynonym>5 Prime Nucleotidase</nciodm:CDISCSynonym>
                    <nciodm:CDISCSynonym>5'-Ribonucleotide Phosphohydrolase</nciodm:CDISCSynonym>
                    <nciodm:CDISCDefinition>A measurement of the 5'-nucleotidase in a biological specimen.</nciodm:CDISCDefinition>
                    <nciodm:PreferredTerm>5 Prime Nucleotidase Measurement</nciodm:PreferredTerm>
                </EnumeratedItem>
                <EnumeratedItem CodedValue="5-Hydroxyindoleacetic Acid" nciodm:ExtCodeID="C112217">
                    <nciodm:CDISCSynonym>5-Hydroxyindoleacetic Acid</nciodm:CDISCSynonym>
                    <nciodm:CDISCDefinition>A measurement of 5-hydroxyindoleacetic acid in a biological specimen.</nciodm:CDISCDefinition>
                    <nciodm:PreferredTerm>5-Hydroxyindoleacetic Acid Measurement</nciodm:PreferredTerm>
                </EnumeratedItem>
                <EnumeratedItem CodedValue="6-Monoacetylmorphine" nciodm:ExtCodeID="C74876">
                    <nciodm:CDISCSynonym>6-Monoacetylmorphine</nciodm:CDISCSynonym>
                    <nciodm:CDISCDefinition>A measurement of the 6-monoacetylmorphine present in a biological specimen.</nciodm:CDISCDefinition>
                    <nciodm:PreferredTerm>6-Monoacetylmorphine Measurement</nciodm:PreferredTerm>
                </EnumeratedItem>
                <EnumeratedItem CodedValue="8-Iso-PGF2alpha/Creatinine" nciodm:ExtCodeID="C119291">
                    <nciodm:CDISCSynonym>8-Iso-PGF2alpha/Creatinine</nciodm:CDISCSynonym>
                    <nciodm:CDISCDefinition>A relative measurement (ratio or percentage) of the prostaglandin F2 alpha isoform 8 to creatinine in a biological specimen.</nciodm:CDISCDefinition>
                    <nciodm:PreferredTerm>8-Iso-Prostaglandin F2 Alpha to Creatinine Ratio Measurement</nciodm:PreferredTerm>
                </EnumeratedItem>
                <EnumeratedItem CodedValue="8-Iso-Prostaglandin F2 Alpha" nciodm:ExtCodeID="C119292">
                    <nciodm:CDISCSynonym>8-Iso-Prostaglandin F2 Alpha</nciodm:CDISCSynonym>
                    <nciodm:CDISCDefinition>A measurement of the prostaglandin F2 alpha isoform 8 in a biological specimen.</nciodm:CDISCDefinition>
                    <nciodm:PreferredTerm>8-Iso-Prostaglandin F2 Alpha Measurement</nciodm:PreferredTerm>
                </EnumeratedItem>
                <EnumeratedItem CodedValue="A Fetoprotein L3/A Fetoprotein" nciodm:ExtCodeID="C96565">
                    <nciodm:CDISCSynonym>A Fetoprotein L3/A Fetoprotein</nciodm:CDISCSynonym>
                    <nciodm:CDISCDefinition>A relative measurement (ratio or percentage) of alpha fetoprotein L3 to total alpha fetoprotein in a biological specimen.</nciodm:CDISCDefinition>
                    <nciodm:PreferredTerm>Alpha Fetoprotein L3 to Total Alpha Fetoprotein Ratio Measurement</nciodm:PreferredTerm>
                </EnumeratedItem>
                <EnumeratedItem CodedValue="A Proliferation-Inducing Ligand" nciodm:ExtCodeID="C111123">
                    <nciodm:CDISCSynonym>A Proliferation-Inducing Ligand</nciodm:CDISCSynonym>
                    <nciodm:CDISCSynonym>CD256</nciodm:CDISCSynonym>
                    <nciodm:CDISCSynonym>TNFSF13</nciodm:CDISCSynonym>
                    <nciodm:CDISCSynonym>Tumor Necrosis Factor Ligand Superfamily Member 13</nciodm:CDISCSynonym>
                    <nciodm:CDISCDefinition>A measurement of the a proliferation-inducing ligand in a biological specimen.</nciodm:CDISCDefinition>
                    <nciodm:PreferredTerm>A Proliferation-Inducing Ligand Measurement</nciodm:PreferredTerm>
                </EnumeratedItem>
                <EnumeratedItem CodedValue="A. fumigatus Antigen IgE Antibody" nciodm:ExtCodeID="C130144">
                    <nciodm:CDISCSynonym>A. fumigatus Antigen IgE Antibody</nciodm:CDISCSynonym>
                    <nciodm:CDISCDefinition>A measurement of the Aspergillus fumigatus antigen IgE antibody in a biological specimen.</nciodm:CDISCDefinition>
                    <nciodm:PreferredTerm>Aspergillus fumigatus Antigen IgE Antibody Measurement</nciodm:PreferredTerm>
                </EnumeratedItem>
                <EnumeratedItem CodedValue="A. fumigatus Antigen IgG Antibody" nciodm:ExtCodeID="C130145">
                    <nciodm:CDISCSynonym>A. fumigatus Antigen IgG Antibody</nciodm:CDISCSynonym>
                    <nciodm:CDISCDefinition>A measurement of the Aspergillus fumigatus antigen IgG antibody in a biological specimen.</nciodm:CDISCDefinition>
                    <nciodm:PreferredTerm>Aspergillus fumigatus Antigen IgG Antibody Measurement</nciodm:PreferredTerm>
                </EnumeratedItem>
                <EnumeratedItem CodedValue="A. tenuis alternata Antigen IgA AB" nciodm:ExtCodeID="C130151">
                    <nciodm:CDISCSynonym>A. tenuis alternata Antigen IgA AB</nciodm:CDISCSynonym>
                    <nciodm:CDISCDefinition>A measurement of the Alternaria tenuis alternata antigen IgA antibody in a biological specimen.</nciodm:CDISCDefinition>
                    <nciodm:PreferredTerm>Alternaria tenuis alternata Antigen IgA Antibody Measurement</nciodm:PreferredTerm>
                </EnumeratedItem>
                <EnumeratedItem CodedValue="A. tenuis alternata Antigen IgE AB" nciodm:ExtCodeID="C130150">
                    <nciodm:CDISCSynonym>A. tenuis alternata Antigen IgE AB</nciodm:CDISCSynonym>
                    <nciodm:CDISCDefinition>A measurement of the Alternaria tenuis alternata antigen IgE antibody in a biological specimen.</nciodm:CDISCDefinition>
                    <nciodm:PreferredTerm>Alternaria tenuis alternata Antigen IgE Antibody Measurement</nciodm:PreferredTerm>
                </EnumeratedItem>
                <EnumeratedItem CodedValue="A. tenuis alternata Antigen IgG AB" nciodm:ExtCodeID="C130152">
                    <nciodm:CDISCSynonym>A. tenuis alternata Antigen IgG AB</nciodm:CDISCSynonym>
                    <nciodm:CDISCDefinition>A measurement of the Alternaria tenuis alternata antigen IgG antibody in a biological specimen.</nciodm:CDISCDefinition>
                    <nciodm:PreferredTerm>Alternaria tenuis alternata Antigen IgG Antibody Measurement</nciodm:PreferredTerm>
                </EnumeratedItem>
                <EnumeratedItem CodedValue="A. tenuis alternata Antigen IgG4 AB" nciodm:ExtCodeID="C130153">
                    <nciodm:CDISCSynonym>A. tenuis alternata Antigen IgG4 AB</nciodm:CDISCSynonym>
                    <nciodm:CDISCDefinition>A measurement of the Alternaria tenuis alternata antigen IgG4 antibody in a biological specimen.</nciodm:CDISCDefinition>
                    <nciodm:PreferredTerm>Alternaria tenuis alternata Antigen IgG4 Antibody Measurement</nciodm:PreferredTerm>
                </EnumeratedItem>
                <EnumeratedItem CodedValue="Abnormal Cells" nciodm:ExtCodeID="C111124">
                    <nciodm:CDISCSynonym>Abnormal Cells</nciodm:CDISCSynonym>
                    <nciodm:CDISCDefinition>A measurement of the abnormal cells in a biological specimen.</nciodm:CDISCDefinition>
                    <nciodm:PreferredTerm>Abnormal Cell Count</nciodm:PreferredTerm>
                </EnumeratedItem>
                <EnumeratedItem CodedValue="ABO Blood Group" nciodm:ExtCodeID="C125939">
                    <nciodm:CDISCSynonym>ABO Blood Group</nciodm:CDISCSynonym>
                    <nciodm:CDISCDefinition>The characterization of the blood type of an individual by testing for the presence of A antigen and B antigen on the surface of red blood cells.</nciodm:CDISCDefinition>
                    <nciodm:PreferredTerm>ABO Blood Group Determination</nciodm:PreferredTerm>
                </EnumeratedItem>
                <EnumeratedItem CodedValue="Acanthocytes" nciodm:ExtCodeID="C74699">
                    <nciodm:CDISCSynonym>Acanthocytes</nciodm:CDISCSynonym>
                    <nciodm:CDISCDefinition>A measurement of the acanthocytes in a biological specimen.</nciodm:CDISCDefinition>
                    <nciodm:PreferredTerm>Acanthocyte Count</nciodm:PreferredTerm>
                </EnumeratedItem>
                <EnumeratedItem CodedValue="Acanthocytes/Erythrocytes" nciodm:ExtCodeID="C74633">
                    <nciodm:CDISCSynonym>Acanthocytes/Erythrocytes</nciodm:CDISCSynonym>
                    <nciodm:CDISCDefinition>A relative measurement (ratio or percentage) of acanthocytes to all erythrocytes in a biological specimen.</nciodm:CDISCDefinition>
                    <nciodm:PreferredTerm>Acanthocyte to Erythrocyte Ratio Measurement</nciodm:PreferredTerm>
                </EnumeratedItem>
                <EnumeratedItem CodedValue="Acetoacetic Acid" nciodm:ExtCodeID="C92247">
                    <nciodm:CDISCSynonym>Acetoacetate</nciodm:CDISCSynonym>
                    <nciodm:CDISCSynonym>Acetoacetic Acid</nciodm:CDISCSynonym>
                    <nciodm:CDISCDefinition>A measurement of the acetoacetic acid in a biological specimen.</nciodm:CDISCDefinition>
                    <nciodm:PreferredTerm>Acetoacetic Acid Measurement</nciodm:PreferredTerm>
                </EnumeratedItem>
                <EnumeratedItem CodedValue="Acetylcholine" nciodm:ExtCodeID="C74838">
                    <nciodm:CDISCSynonym>Acetylcholine</nciodm:CDISCSynonym>
                    <nciodm:CDISCDefinition>A measurement of the acetylcholine hormone in a biological specimen.</nciodm:CDISCDefinition>
                    <nciodm:PreferredTerm>Acetylcholine Measurement</nciodm:PreferredTerm>
                </EnumeratedItem>
                <EnumeratedItem CodedValue="Acetylcholine Receptor Antibody" nciodm:ExtCodeID="C96559">
                    <nciodm:CDISCSynonym>Acetylcholine Receptor Antibody</nciodm:CDISCSynonym>
                    <nciodm:CDISCDefinition>A measurement of the acetylcholine receptor antibody in a biological specimen.</nciodm:CDISCDefinition>
                    <nciodm:PreferredTerm>Acetylcholine Receptor Antibody Measurement</nciodm:PreferredTerm>
                </EnumeratedItem>
                <EnumeratedItem CodedValue="Acetylcholinesterase" nciodm:ExtCodeID="C96560">
                    <nciodm:CDISCSynonym>Acetylcholinesterase</nciodm:CDISCSynonym>
                    <nciodm:CDISCDefinition>A measurement of the acetylcholinesterase in a biological specimen.</nciodm:CDISCDefinition>
                    <nciodm:PreferredTerm>Acetylcholinesterase Measurement</nciodm:PreferredTerm>
                </EnumeratedItem>
                <EnumeratedItem CodedValue="Acid Phosphatase" nciodm:ExtCodeID="C80163">
                    <nciodm:CDISCSynonym>Acid Phosphatase</nciodm:CDISCSynonym>
                    <nciodm:CDISCDefinition>A measurement of the acid phosphatase in a biological specimen.</nciodm:CDISCDefinition>
                    <nciodm:PreferredTerm>Acid Phosphatase Measurement</nciodm:PreferredTerm>
                </EnumeratedItem>
                <EnumeratedItem CodedValue="Acid Urate Crystals" nciodm:ExtCodeID="C74912">
                    <nciodm:CDISCSynonym>Acid Urate Crystals</nciodm:CDISCSynonym>
                    <nciodm:CDISCDefinition>A measurement of the acid urate crystals present in a biological specimen.</nciodm:CDISCDefinition>
                    <nciodm:PreferredTerm>Acid Urate Crystal Measurement</nciodm:PreferredTerm>
                </EnumeratedItem>
                <EnumeratedItem CodedValue="Activated Coagulation Time" nciodm:ExtCodeID="C103348">
                    <nciodm:CDISCSynonym>Activated Clotting Time</nciodm:CDISCSynonym>
                    <nciodm:CDISCSynonym>Activated Coagulation Time</nciodm:CDISCSynonym>
                    <nciodm:CDISCDefinition>A measurement of the inhibition of blood coagulation in response to anticoagulant therapies.</nciodm:CDISCDefinition>
                    <nciodm:PreferredTerm>Activated Coagulation Time</nciodm:PreferredTerm>
                </EnumeratedItem>
                <EnumeratedItem CodedValue="Activated Partial Thromboplastin Time" nciodm:ExtCodeID="C38462">
                    <nciodm:CDISCSynonym>Activated Partial Thromboplastin Time</nciodm:CDISCSynonym>
                    <nciodm:CDISCDefinition>A measurement of the length of time that it takes for clotting to occur when reagents are added to a plasma specimen. The test is partial due to the absence of tissue factor (Factor III) from the reaction mixture.</nciodm:CDISCDefinition>
                    <nciodm:PreferredTerm>Partial Thromboplastin Time</nciodm:PreferredTerm>
                </EnumeratedItem>
                <EnumeratedItem CodedValue="Activated Protein C Resistance" nciodm:ExtCodeID="C100471">
                    <nciodm:CDISCSynonym>Activated Protein C Resistance</nciodm:CDISCSynonym>
                    <nciodm:CDISCSynonym>Factor V Leiden Screen</nciodm:CDISCSynonym>
                    <nciodm:CDISCDefinition>A measurement of the resistance in the anticoagulation response to activated protein C in a biological specimen.</nciodm:CDISCDefinition>
                    <nciodm:PreferredTerm>Activated Protein C Resistance Measurement</nciodm:PreferredTerm>
                </EnumeratedItem>
                <EnumeratedItem CodedValue="Activated PTT/Standard" nciodm:ExtCodeID="C98862">
                    <nciodm:CDISCSynonym>Activated PTT/Standard</nciodm:CDISCSynonym>
                    <nciodm:CDISCSynonym>Activated PTT/Standard PTT</nciodm:CDISCSynonym>
                    <nciodm:CDISCSynonym>Activated Partial Thromboplastin Time/Standard Thromboplastin Time</nciodm:CDISCSynonym>
                    <nciodm:CDISCDefinition>A relative measurement (ratio or percentage) of the subject's partial thromboplastin time to a standard or control partial thromboplastin time.</nciodm:CDISCDefinition>
                    <nciodm:PreferredTerm>Activated PTT/Standard Ratio Measurement</nciodm:PreferredTerm>
                </EnumeratedItem>
                <EnumeratedItem CodedValue="Active Ghrelin" nciodm:ExtCodeID="C112219">
                    <nciodm:CDISCSynonym>Active Ghrelin</nciodm:CDISCSynonym>
                    <nciodm:CDISCSynonym>Ghrelin</nciodm:CDISCSynonym>
                    <nciodm:CDISCDefinition>A measurement of active ghrelin in a biological specimen.</nciodm:CDISCDefinition>
                    <nciodm:PreferredTerm>Active Ghrelin Measurement</nciodm:PreferredTerm>
                </EnumeratedItem>
                <EnumeratedItem CodedValue="Acyl Coenzyme A Oxidase" nciodm:ExtCodeID="C92286">
                    <nciodm:CDISCSynonym>Acyl CoA Oxidase</nciodm:CDISCSynonym>
                    <nciodm:CDISCSynonym>Acyl Coenzyme A Oxidase</nciodm:CDISCSynonym>
                    <nciodm:CDISCSynonym>Fatty Acyl Coenzyme A Oxidase</nciodm:CDISCSynonym>
                    <nciodm:CDISCDefinition>A measurement of the acyl coenzyme A oxidase in a biological specimen.</nciodm:CDISCDefinition>
                    <nciodm:PreferredTerm>Acyl Coenzyme A Oxidase Measurement</nciodm:PreferredTerm>
                </EnumeratedItem>
                <EnumeratedItem CodedValue="Adenosine Diphosphate" nciodm:ExtCodeID="C102257">
                    <nciodm:CDISCSynonym>Adenosine Diphosphate</nciodm:CDISCSynonym>
                    <nciodm:CDISCDefinition>A measurement of the adenosine diphosphate in a biological specimen.</nciodm:CDISCDefinition>
                    <nciodm:PreferredTerm>Adenosine Diphosphate Measurement</nciodm:PreferredTerm>
                </EnumeratedItem>
                <EnumeratedItem CodedValue="Adenovirus Antibody" nciodm:ExtCodeID="C111125">
                    <nciodm:CDISCSynonym>Adenovirus Antibody</nciodm:CDISCSynonym>
                    <nciodm:CDISCDefinition>A measurement of the adenovirus antibody in a biological specimen.</nciodm:CDISCDefinition>
                    <nciodm:PreferredTerm>Adenovirus Antibody Measurement</nciodm:PreferredTerm>
                </EnumeratedItem>
                <EnumeratedItem CodedValue="Adiponectin" nciodm:ExtCodeID="C74839">
                    <nciodm:CDISCSynonym>Adiponectin</nciodm:CDISCSynonym>
                    <nciodm:CDISCDefinition>A measurement of the adiponectin hormone in a biological specimen.</nciodm:CDISCDefinition>
                    <nciodm:PreferredTerm>Adiponectin Measurement</nciodm:PreferredTerm>
                </EnumeratedItem>
                <EnumeratedItem CodedValue="Adrenocorticotropic Hormone" nciodm:ExtCodeID="C74780">
                    <nciodm:CDISCSynonym>Adrenocorticotropic Hormone</nciodm:CDISCSynonym>
                    <nciodm:CDISCDefinition>A measurement of the adrenocorticotropic hormone in a biological specimen.</nciodm:CDISCDefinition>
                    <nciodm:PreferredTerm>Adrenocorticotropic Hormone Measurement</nciodm:PreferredTerm>
                </EnumeratedItem>
                <EnumeratedItem CodedValue="ADV Viral Load" nciodm:ExtCodeID="C98705">
                    <nciodm:CDISCSynonym>ADV Viral Load</nciodm:CDISCSynonym>
                    <nciodm:CDISCDefinition>A measurement of the adenovirus viral load in a biological specimen.</nciodm:CDISCDefinition>
                    <nciodm:PreferredTerm>Adenovirus Viral Load Measurement</nciodm:PreferredTerm>
                </EnumeratedItem>
                <EnumeratedItem CodedValue="Aggrecan Chondroitin Sulfate Epitope 846" nciodm:ExtCodeID="C112220">
                    <nciodm:CDISCSynonym>846-Epitope</nciodm:CDISCSynonym>
                    <nciodm:CDISCSynonym>Aggrecan Chondroitin Sulfate Epitope 846</nciodm:CDISCSynonym>
                    <nciodm:CDISCSynonym>CS846</nciodm:CDISCSynonym>
                    <nciodm:CDISCSynonym>Chondroitin Sulfate Epitope 846</nciodm:CDISCSynonym>
                    <nciodm:CDISCSynonym>Chondroitin Sulfate Proteoglycan 1 Epitope 846</nciodm:CDISCSynonym>
                    <nciodm:CDISCDefinition>A measurement of the 846 epitope present on the chondroitin sulfate chains of aggrecan in a biological specimen.</nciodm:CDISCDefinition>
                    <nciodm:PreferredTerm>Aggrecan Chondroitin Sulfate Epitope 846 Measurement</nciodm:PreferredTerm>
                </EnumeratedItem>
                <EnumeratedItem CodedValue="Agranular Neutrophils" nciodm:ExtCodeID="C116200">
                    <nciodm:CDISCSynonym>Agranular Neutrophils</nciodm:CDISCSynonym>
                    <nciodm:CDISCDefinition>A measurement of the agranular neutrophils in a biological specimen.</nciodm:CDISCDefinition>
                    <nciodm:PreferredTerm>Agranular Neutrophils Measurement</nciodm:PreferredTerm>
                </EnumeratedItem>
                <EnumeratedItem CodedValue="Alanine" nciodm:ExtCodeID="C122091">
                    <nciodm:CDISCSynonym>Alanine</nciodm:CDISCSynonym>
                    <nciodm:CDISCDefinition>A measurement of the alanine in a biological specimen.</nciodm:CDISCDefinition>
                    <nciodm:PreferredTerm>Alanine Measurement</nciodm:PreferredTerm>
                </EnumeratedItem>
                <EnumeratedItem CodedValue="Alanine Aminopeptidase" nciodm:ExtCodeID="C100430">
                    <nciodm:CDISCSynonym>Alanine Aminopeptidase</nciodm:CDISCSynonym>
                    <nciodm:CDISCDefinition>A measurement of the alanine aminopeptidase in a biological specimen.</nciodm:CDISCDefinition>
                    <nciodm:PreferredTerm>Alanine Aminopeptidase Measurement</nciodm:PreferredTerm>
                </EnumeratedItem>
                <EnumeratedItem CodedValue="Alanine Aminotransferase" nciodm:ExtCodeID="C64433">
                    <nciodm:CDISCSynonym>Alanine Aminotransferase</nciodm:CDISCSynonym>
                    <nciodm:CDISCSynonym>SGPT</nciodm:CDISCSynonym>
                    <nciodm:CDISCDefinition>A measurement of the alanine aminotransferase in a biological specimen.</nciodm:CDISCDefinition>
                    <nciodm:PreferredTerm>Alanine Aminotransferase Measurement</nciodm:PreferredTerm>
                </EnumeratedItem>
                <EnumeratedItem CodedValue="Albumin" nciodm:ExtCodeID="C64431">
                    <nciodm:CDISCSynonym>Albumin</nciodm:CDISCSynonym>
                    <nciodm:CDISCSynonym>Microalbumin</nciodm:CDISCSynonym>
                    <nciodm:CDISCDefinition>A measurement of the albumin protein in a biological specimen.</nciodm:CDISCDefinition>
                    <nciodm:PreferredTerm>Albumin Measurement</nciodm:PreferredTerm>
                </EnumeratedItem>
                <EnumeratedItem CodedValue="Albumin Excretion Rate" nciodm:ExtCodeID="C117829">
                    <nciodm:CDISCSynonym>Albumin Excretion Rate</nciodm:CDISCSynonym>
                    <nciodm:CDISCDefinition>A measurement of the amount of albumin being excreted in urine over a defined period of time (e.g. one hour).</nciodm:CDISCDefinition>
                    <nciodm:PreferredTerm>Albumin Urine Excretion Rate</nciodm:PreferredTerm>
                </EnumeratedItem>
                <EnumeratedItem CodedValue="Albumin/Creatinine" nciodm:ExtCodeID="C74761">
                    <nciodm:CDISCSynonym>Albumin/Creatinine</nciodm:CDISCSynonym>
                    <nciodm:CDISCSynonym>Microalbumin/Creatinine Ratio</nciodm:CDISCSynonym>
                    <nciodm:CDISCDefinition>A relative measurement (ratio) of the albumin to the creatinine in a biological specimen.</nciodm:CDISCDefinition>
                    <nciodm:PreferredTerm>Albumin To Creatinine Protein Ratio Measurement</nciodm:PreferredTerm>
                </EnumeratedItem>
                <EnumeratedItem CodedValue="Albumin/Globulin" nciodm:ExtCodeID="C74894">
                    <nciodm:CDISCSynonym>Albumin/Globulin</nciodm:CDISCSynonym>
                    <nciodm:CDISCDefinition>The ratio of albumin to globulin in a biological specimen.</nciodm:CDISCDefinition>
                    <nciodm:PreferredTerm>Albumin to Globulin Ratio Measurement</nciodm:PreferredTerm>
                </EnumeratedItem>
                <EnumeratedItem CodedValue="Albumin/Total Protein" nciodm:ExtCodeID="C103453">
                    <nciodm:CDISCSynonym>Albumin/Total Protein</nciodm:CDISCSynonym>
                    <nciodm:CDISCDefinition>A relative measurement (ratio or percentage) of the albumin to total protein in a biological specimen.</nciodm:CDISCDefinition>
                    <nciodm:PreferredTerm>Albumin to Total Protein Ratio Measurement</nciodm:PreferredTerm>
                </EnumeratedItem>
                <EnumeratedItem CodedValue="Aldolase" nciodm:ExtCodeID="C74731">
                    <nciodm:CDISCSynonym>Aldolase</nciodm:CDISCSynonym>
                    <nciodm:CDISCDefinition>A measurement of the aldolase enzyme in a biological specimen.</nciodm:CDISCDefinition>
                    <nciodm:PreferredTerm>Aldolase Measurement</nciodm:PreferredTerm>
                </EnumeratedItem>
                <EnumeratedItem CodedValue="Aldosterone" nciodm:ExtCodeID="C74841">
                    <nciodm:CDISCSynonym>Aldosterone</nciodm:CDISCSynonym>
                    <nciodm:CDISCDefinition>A measurement of the aldosterone hormone in a biological specimen.</nciodm:CDISCDefinition>
                    <nciodm:PreferredTerm>Aldosterone Measurement</nciodm:PreferredTerm>
                </EnumeratedItem>
                <EnumeratedItem CodedValue="Aldosterone/Renin Activity" nciodm:ExtCodeID="C124338">
                    <nciodm:CDISCSynonym>Aldosterone/Renin Activity</nciodm:CDISCSynonym>
                    <nciodm:CDISCDefinition>A relative measurement (ratio) of the aldosterone to renin activity in a biological specimen.</nciodm:CDISCDefinition>
                    <nciodm:PreferredTerm>Aldosterone to Renin Activity Ratio Measurement</nciodm:PreferredTerm>
                </EnumeratedItem>
                <EnumeratedItem CodedValue="Alkaline Phosphatase" nciodm:ExtCodeID="C64432">
                    <nciodm:CDISCSynonym>Alkaline Phosphatase</nciodm:CDISCSynonym>
                    <nciodm:CDISCDefinition>A measurement of the alkaline phosphatase in a biological specimen.</nciodm:CDISCDefinition>
                    <nciodm:PreferredTerm>Alkaline Phosphatase Measurement</nciodm:PreferredTerm>
                </EnumeratedItem>
                <EnumeratedItem CodedValue="Alkaline Phosphatase/Creatinine" nciodm:ExtCodeID="C79438">
                    <nciodm:CDISCSynonym>Alkaline Phosphatase/Creatinine</nciodm:CDISCSynonym>
                    <nciodm:CDISCDefinition>A relative measurement (ratio or percentage) of the alkaline phosphatase to creatinine in a biological specimen.</nciodm:CDISCDefinition>
                    <nciodm:PreferredTerm>Alkaline Phosphatase to Creatinine Ratio Measurement</nciodm:PreferredTerm>
                </EnumeratedItem>
                <EnumeratedItem CodedValue="Alpha Fetoprotein" nciodm:ExtCodeID="C74732">
                    <nciodm:CDISCSynonym>Alpha Fetoprotein</nciodm:CDISCSynonym>
                    <nciodm:CDISCDefinition>A measurement of the alpha fetoprotein in a biological specimen.</nciodm:CDISCDefinition>
                    <nciodm:PreferredTerm>Alpha-fetoprotein Measurement</nciodm:PreferredTerm>
                </EnumeratedItem>
                <EnumeratedItem CodedValue="Alpha Fetoprotein Activity" nciodm:ExtCodeID="C106499">
                    <nciodm:CDISCSynonym>Alpha Fetoprotein Activity</nciodm:CDISCSynonym>
                    <nciodm:CDISCDefinition>A measurement of the alpha fetoprotein activity in a biological specimen.</nciodm:CDISCDefinition>
                    <nciodm:PreferredTerm>Alpha Fetoprotein Activity Measurement</nciodm:PreferredTerm>
                </EnumeratedItem>
                <EnumeratedItem CodedValue="Alpha Fetoprotein L1" nciodm:ExtCodeID="C96562">
                    <nciodm:CDISCSynonym>Alpha Fetoprotein L1</nciodm:CDISCSynonym>
                    <nciodm:CDISCDefinition>A measurement of the alpha fetoprotein L1 in a biological specimen.</nciodm:CDISCDefinition>
                    <nciodm:PreferredTerm>Alpha Fetoprotein L1 Measurement</nciodm:PreferredTerm>
                </EnumeratedItem>
                <EnumeratedItem CodedValue="Alpha Fetoprotein L2" nciodm:ExtCodeID="C96563">
                    <nciodm:CDISCSynonym>Alpha Fetoprotein L2</nciodm:CDISCSynonym>
                    <nciodm:CDISCDefinition>A measurement of the alpha fetoprotein L2 in a biological specimen.</nciodm:CDISCDefinition>
                    <nciodm:PreferredTerm>Alpha Fetoprotein L2 Measurement</nciodm:PreferredTerm>
                </EnumeratedItem>
                <EnumeratedItem CodedValue="Alpha Fetoprotein L3" nciodm:ExtCodeID="C96564">
                    <nciodm:CDISCSynonym>Alpha Fetoprotein L3</nciodm:CDISCSynonym>
                    <nciodm:CDISCDefinition>A measurement of the alpha fetoprotein L3 in a biological specimen.</nciodm:CDISCDefinition>
                    <nciodm:PreferredTerm>Alpha Fetoprotein L3 Measurement</nciodm:PreferredTerm>
                </EnumeratedItem>
                <EnumeratedItem CodedValue="Alpha Glutathione-S-Transferase" nciodm:ExtCodeID="C79433">
                    <nciodm:CDISCSynonym>Alpha Glutathione-S-Transferase</nciodm:CDISCSynonym>
                    <nciodm:CDISCDefinition>A measurement of the alpha form of glutathione S-transferase in a biological specimen.</nciodm:CDISCDefinition>
                    <nciodm:PreferredTerm>Alpha Glutathione-S-Transferase Measurement</nciodm:PreferredTerm>
                </EnumeratedItem>
                <EnumeratedItem CodedValue="Alpha Hydroxybutyrate Dehydrogenase" nciodm:ExtCodeID="C111126">
                    <nciodm:CDISCSynonym>Alpha Hydroxybutyrate Dehydrogenase</nciodm:CDISCSynonym>
                    <nciodm:CDISCDefinition>A measurement of the alpha-hydroxybutyrate dehydrogenase in a biological specimen.</nciodm:CDISCDefinition>
                    <nciodm:PreferredTerm>Alpha Hydroxybutyrate Dehydrogenase Measurement</nciodm:PreferredTerm>
                </EnumeratedItem>
                <EnumeratedItem CodedValue="Alpha Tocopherol" nciodm:ExtCodeID="C103349">
                    <nciodm:CDISCSynonym>Alpha Tocopherol</nciodm:CDISCSynonym>
                    <nciodm:CDISCDefinition>A measurement of the alpha tocopherol in a biological specimen.</nciodm:CDISCDefinition>
                    <nciodm:PreferredTerm>Alpha Tocopherol Measurement</nciodm:PreferredTerm>
                </EnumeratedItem>
                <EnumeratedItem CodedValue="Alpha Tocopherol/Vitamin E" nciodm:ExtCodeID="C103350">
                    <nciodm:CDISCSynonym>Alpha Tocopherol/Vitamin E</nciodm:CDISCSynonym>
                    <nciodm:CDISCDefinition>A relative measurement (ratio or percentage) of alpha-tocopherol to the total vitamin E in a biological specimen.</nciodm:CDISCDefinition>
                    <nciodm:PreferredTerm>Alpha Tocopherol to Vitamin E Ratio Measurement</nciodm:PreferredTerm>
                </EnumeratedItem>
                <EnumeratedItem CodedValue="Alpha-1 Acid Glycoprotein" nciodm:ExtCodeID="C100429">
                    <nciodm:CDISCSynonym>Alpha-1 Acid Glycoprotein</nciodm:CDISCSynonym>
                    <nciodm:CDISCDefinition>A measurement of the alpha-1 acid glycoprotein in a biological specimen.</nciodm:CDISCDefinition>
                    <nciodm:PreferredTerm>Alpha-1 Acid Glycoprotein Measurement</nciodm:PreferredTerm>
                </EnumeratedItem>
                <EnumeratedItem CodedValue="Alpha-1 Antitrypsin" nciodm:ExtCodeID="C80167">
                    <nciodm:CDISCSynonym>Alpha-1 Antitrypsin</nciodm:CDISCSynonym>
                    <nciodm:CDISCSynonym>Serum Trypsin Inhibitor</nciodm:CDISCSynonym>
                    <nciodm:CDISCDefinition>A measurement of the alpha-1 antitrypsin in a biological specimen.</nciodm:CDISCDefinition>
                    <nciodm:PreferredTerm>Alpha-1 Antitrypsin Measurement</nciodm:PreferredTerm>
                </EnumeratedItem>
                <EnumeratedItem CodedValue="Alpha-1 Globulin" nciodm:ExtCodeID="C92252">
                    <nciodm:CDISCSynonym>A1-Globulin</nciodm:CDISCSynonym>
                    <nciodm:CDISCSynonym>Alpha-1 Globulin</nciodm:CDISCSynonym>
                    <nciodm:CDISCDefinition>A measurement of the proteins contributing to the alpha 1 fraction in a biological specimen.</nciodm:CDISCDefinition>
                    <nciodm:PreferredTerm>Alpha-1 Globulin Measurement</nciodm:PreferredTerm>
                </EnumeratedItem>
                <EnumeratedItem CodedValue="Alpha-1 Globulin/Total Protein" nciodm:ExtCodeID="C92253">
                    <nciodm:CDISCSynonym>Alpha-1 Globulin/Total Protein</nciodm:CDISCSynonym>
                    <nciodm:CDISCDefinition>A relative measurement (ratio or percentage) of alpha-1-fraction proteins to total proteins in a biological specimen.</nciodm:CDISCDefinition>
                    <nciodm:PreferredTerm>Alpha-1 Globulin to Total Protein Ratio Measurement</nciodm:PreferredTerm>
                </EnumeratedItem>
                <EnumeratedItem CodedValue="Alpha-1 Microglobulin" nciodm:ExtCodeID="C100461">
                    <nciodm:CDISCSynonym>Alpha-1 Microglobulin</nciodm:CDISCSynonym>
                    <nciodm:CDISCSynonym>Protein HC</nciodm:CDISCSynonym>
                    <nciodm:CDISCDefinition>A measurement of the alpha-1 microglobulin in a biological specimen.</nciodm:CDISCDefinition>
                    <nciodm:PreferredTerm>Alpha-1 Microglobulin Measurement</nciodm:PreferredTerm>
                </EnumeratedItem>
                <EnumeratedItem CodedValue="Alpha-1 Microglobulin/Creatinine" nciodm:ExtCodeID="C100462">
                    <nciodm:CDISCSynonym>Alpha-1 Microglobulin/Creatinine</nciodm:CDISCSynonym>
                    <nciodm:CDISCDefinition>A relative measurement (ratio or percentage) of the alpha-1 microglobulin to creatinine in a biological specimen.</nciodm:CDISCDefinition>
                    <nciodm:PreferredTerm>Alpha-1 Microglobulin to Creatinine Ratio Measurement</nciodm:PreferredTerm>
                </EnumeratedItem>
                <EnumeratedItem CodedValue="Alpha-2 Antiplasmin" nciodm:ExtCodeID="C103351">
                    <nciodm:CDISCSynonym>Alpha-2 Antiplasmin</nciodm:CDISCSynonym>
                    <nciodm:CDISCSynonym>Alpha-2 Plasmin Inhibitor</nciodm:CDISCSynonym>
                    <nciodm:CDISCDefinition>A measurement of the alpha-2 antiplasmin in a biological specimen.</nciodm:CDISCDefinition>
                    <nciodm:PreferredTerm>Alpha-2 Antiplasmin Measurement</nciodm:PreferredTerm>
                </EnumeratedItem>
                <EnumeratedItem CodedValue="Alpha-2 Antiplasmin Activity" nciodm:ExtCodeID="C122094">
                    <nciodm:CDISCSynonym>Alpha-2 Antiplasmin Activity</nciodm:CDISCSynonym>
                    <nciodm:CDISCDefinition>A measurement of the alpha-2 antiplasmin activity in a biological specimen.</nciodm:CDISCDefinition>
                    <nciodm:PreferredTerm>Alpha-2 Antiplasmin Activity Measurement</nciodm:PreferredTerm>
                </EnumeratedItem>
                <EnumeratedItem CodedValue="Alpha-2 Globulin" nciodm:ExtCodeID="C92254">
                    <nciodm:CDISCSynonym>A2-Globulin</nciodm:CDISCSynonym>
                    <nciodm:CDISCSynonym>Alpha-2 Globulin</nciodm:CDISCSynonym>
                    <nciodm:CDISCDefinition>A measurement of the proteins contributing to the alpha 2 fraction in a biological specimen.</nciodm:CDISCDefinition>
                    <nciodm:PreferredTerm>Alpha-2 Globulin Measurement</nciodm:PreferredTerm>
                </EnumeratedItem>
                <EnumeratedItem CodedValue="Alpha-2 Globulin/Total Protein" nciodm:ExtCodeID="C92255">
                    <nciodm:CDISCSynonym>Alpha-2 Globulin/Total Protein</nciodm:CDISCSynonym>
                    <nciodm:CDISCDefinition>A relative measurement (ratio or percentage) of alpha-2-fraction proteins to total proteins in a biological specimen.</nciodm:CDISCDefinition>
                    <nciodm:PreferredTerm>Alpha-2 Globulin to Total Protein Ratio Measurement</nciodm:PreferredTerm>
                </EnumeratedItem>
                <EnumeratedItem CodedValue="Alpha-2 Macroglobulin" nciodm:ExtCodeID="C80168">
                    <nciodm:CDISCSynonym>Alpha-2 Macroglobulin</nciodm:CDISCSynonym>
                    <nciodm:CDISCDefinition>A measurement of the alpha-2 macroglobulin in a biological specimen.</nciodm:CDISCDefinition>
                    <nciodm:PreferredTerm>Alpha-2 Macroglobulin Measurement</nciodm:PreferredTerm>
                </EnumeratedItem>
                <EnumeratedItem CodedValue="Alpha-GST Excretion Rate" nciodm:ExtCodeID="C119278">
                    <nciodm:CDISCSynonym>Alpha-GST Excretion Rate</nciodm:CDISCSynonym>
                    <nciodm:CDISCDefinition>A measurement of the amount of Alpha Glutathione-S-Transferase being excreted in urine over a defined period of time (e.g. one hour).</nciodm:CDISCDefinition>
                    <nciodm:PreferredTerm>Alpha-GST Excretion Rate</nciodm:PreferredTerm>
                </EnumeratedItem>
                <EnumeratedItem CodedValue="ALT/AST" nciodm:ExtCodeID="C106498">
                    <nciodm:CDISCSynonym>ALT/AST</nciodm:CDISCSynonym>
                    <nciodm:CDISCDefinition>A relative measurement (ratio or percentage) of the alanine aminotransferase (ALT) to aspartate aminotransferase (AST) present in a sample.</nciodm:CDISCDefinition>
                    <nciodm:PreferredTerm>Alanine Aminotransferase to Aspartate Aminotransferase Ratio Measurement</nciodm:PreferredTerm>
                </EnumeratedItem>
                <EnumeratedItem CodedValue="Aluminum" nciodm:ExtCodeID="C111127">
                    <nciodm:CDISCSynonym>Al</nciodm:CDISCSynonym>
                    <nciodm:CDISCSynonym>Aluminum</nciodm:CDISCSynonym>
                    <nciodm:CDISCDefinition>A measurement of aluminum in a biological specimen.</nciodm:CDISCDefinition>
                    <nciodm:PreferredTerm>Aluminum Measurement</nciodm:PreferredTerm>
                </EnumeratedItem>
                <EnumeratedItem CodedValue="American Cockroach Antigen IgA Antibody" nciodm:ExtCodeID="C130137">
                    <nciodm:CDISCSynonym>American Cockroach Antigen IgA Antibody</nciodm:CDISCSynonym>
                    <nciodm:CDISCDefinition>A measurement of the Periplaneta americana antigen IgA antibody in a biological specimen.</nciodm:CDISCDefinition>
                    <nciodm:PreferredTerm>American Cockroach Antigen IgA Antibody Measurement</nciodm:PreferredTerm>
                </EnumeratedItem>
                <EnumeratedItem CodedValue="American Cockroach Antigen IgE Antibody" nciodm:ExtCodeID="C130136">
                    <nciodm:CDISCSynonym>American Cockroach Antigen IgE Antibody</nciodm:CDISCSynonym>
                    <nciodm:CDISCDefinition>A measurement of the Periplaneta americana antigen IgE antibody in a biological specimen.</nciodm:CDISCDefinition>
                    <nciodm:PreferredTerm>American Cockroach Antigen IgE Antibody Measurement</nciodm:PreferredTerm>
                </EnumeratedItem>
                <EnumeratedItem CodedValue="American Cockroach Antigen IgG Antibody" nciodm:ExtCodeID="C130138">
                    <nciodm:CDISCSynonym>American Cockroach Antigen IgG Antibody</nciodm:CDISCSynonym>
                    <nciodm:CDISCDefinition>A measurement of the Periplaneta americana antigen IgG antibody in a biological specimen.</nciodm:CDISCDefinition>
                    <nciodm:PreferredTerm>American Cockroach Antigen IgG Antibody Measurement</nciodm:PreferredTerm>
                </EnumeratedItem>
                <EnumeratedItem CodedValue="American Cockroach Antigen IgG4 Antibody" nciodm:ExtCodeID="C130139">
                    <nciodm:CDISCSynonym>American Cockroach Antigen IgG4 Antibody</nciodm:CDISCSynonym>
                    <nciodm:CDISCDefinition>A measurement of the Periplaneta americana antigen IgG4 antibody in a biological specimen.</nciodm:CDISCDefinition>
                    <nciodm:PreferredTerm>American Cockroach Antigen IgG4 Antibody Measurement</nciodm:PreferredTerm>
                </EnumeratedItem>
                <EnumeratedItem CodedValue="Ammonia" nciodm:ExtCodeID="C74799">
                    <nciodm:CDISCSynonym>Ammonia</nciodm:CDISCSynonym>
                    <nciodm:CDISCSynonym>NH3</nciodm:CDISCSynonym>
                    <nciodm:CDISCDefinition>A measurement of the ammonia in a biological specimen.</nciodm:CDISCDefinition>
                    <nciodm:PreferredTerm>Ammonia Measurement</nciodm:PreferredTerm>
                </EnumeratedItem>
                <EnumeratedItem CodedValue="Ammonium Biurate Crystals" nciodm:ExtCodeID="C105590">
                    <nciodm:CDISCSynonym>Acid Ammonium Urate Crystals</nciodm:CDISCSynonym>
                    <nciodm:CDISCSynonym>Ammonium Biurate Crystals</nciodm:CDISCSynonym>
                    <nciodm:CDISCSynonym>Ammonium Urate Crystals</nciodm:CDISCSynonym>
                    <nciodm:CDISCDefinition>A measurement of the ammonium biurate crystals present in a biological specimen.</nciodm:CDISCDefinition>
                    <nciodm:PreferredTerm>Ammonium Biurate Crystals Measurement</nciodm:PreferredTerm>
                </EnumeratedItem>
                <EnumeratedItem CodedValue="Ammonium Oxalate Crystals" nciodm:ExtCodeID="C74759">
                    <nciodm:CDISCSynonym>Ammonium Oxalate Crystals</nciodm:CDISCSynonym>
                    <nciodm:CDISCDefinition>A measurement of the ammonium oxalate crystals present in a urine specimen.</nciodm:CDISCDefinition>
                    <nciodm:PreferredTerm>Urine Ammonium Oxalate Crystal Measurement</nciodm:PreferredTerm>
                </EnumeratedItem>
                <EnumeratedItem CodedValue="Amorphous Crystals" nciodm:ExtCodeID="C74665">
                    <nciodm:CDISCSynonym>Amorphous Crystals</nciodm:CDISCSynonym>
                    <nciodm:CDISCDefinition>A measurement of the amorphous (Note: phosphate or urate, depending on pH) crystals present in a biological specimen.</nciodm:CDISCDefinition>
                    <nciodm:PreferredTerm>Amorphous Crystal Measurement</nciodm:PreferredTerm>
                </EnumeratedItem>
                <EnumeratedItem CodedValue="Amorphous Phosphate Crystals" nciodm:ExtCodeID="C92243">
                    <nciodm:CDISCSynonym>Amorphous Phosphate Crystals</nciodm:CDISCSynonym>
                    <nciodm:CDISCDefinition>A measurement of the amorphous phosphate crystals in a biological specimen.</nciodm:CDISCDefinition>
                    <nciodm:PreferredTerm>Amorphous Phosphate Crystals Measurement</nciodm:PreferredTerm>
                </EnumeratedItem>
                <EnumeratedItem CodedValue="Amorphous Sediment" nciodm:ExtCodeID="C74666">
                    <nciodm:CDISCSynonym>Amorphous Debris</nciodm:CDISCSynonym>
                    <nciodm:CDISCSynonym>Amorphous Sediment</nciodm:CDISCSynonym>
                    <nciodm:CDISCDefinition>A measurement of the amorphous sediment present in a biological specimen.</nciodm:CDISCDefinition>
                    <nciodm:PreferredTerm>Amorphous Sediment Measurement</nciodm:PreferredTerm>
                </EnumeratedItem>
                <EnumeratedItem CodedValue="Amorphous Urate Crystals" nciodm:ExtCodeID="C92244">
                    <nciodm:CDISCSynonym>Amorphous Urate Crystals</nciodm:CDISCSynonym>
                    <nciodm:CDISCDefinition>A measurement of the amorphous urate crystals in a biological specimen.</nciodm:CDISCDefinition>
                    <nciodm:PreferredTerm>Amorphous Urate Crystals Measurement</nciodm:PreferredTerm>
                </EnumeratedItem>
                <EnumeratedItem CodedValue="Amphetamine" nciodm:ExtCodeID="C74687">
                    <nciodm:CDISCSynonym>Amphetamine</nciodm:CDISCSynonym>
                    <nciodm:CDISCDefinition>A measurement of any amphetamine class drug present in a biological specimen.</nciodm:CDISCDefinition>
                    <nciodm:PreferredTerm>Amphetamine Drug Class Measurement</nciodm:PreferredTerm>
                </EnumeratedItem>
                <EnumeratedItem CodedValue="Amylase" nciodm:ExtCodeID="C64434">
                    <nciodm:CDISCSynonym>Amylase</nciodm:CDISCSynonym>
                    <nciodm:CDISCDefinition>A measurement of the total enzyme amylase in a biological specimen.</nciodm:CDISCDefinition>
                    <nciodm:PreferredTerm>Amylase Measurement</nciodm:PreferredTerm>
                </EnumeratedItem>
                <EnumeratedItem CodedValue="Amylase, Pancreatic" nciodm:ExtCodeID="C98767">
                    <nciodm:CDISCSynonym>Amylase, Pancreatic</nciodm:CDISCSynonym>
                    <nciodm:CDISCDefinition>A measurement of the pancreatic enzyme amylase in a biological specimen.</nciodm:CDISCDefinition>
                    <nciodm:PreferredTerm>Pancreatic Amylase Measurement</nciodm:PreferredTerm>
                </EnumeratedItem>
                <EnumeratedItem CodedValue="Amylase, Salivary" nciodm:ExtCodeID="C98780">
                    <nciodm:CDISCSynonym>Amylase, Salivary</nciodm:CDISCSynonym>
                    <nciodm:CDISCDefinition>A measurement of the salivary enzyme amylase in a biological specimen.</nciodm:CDISCDefinition>
                    <nciodm:PreferredTerm>Salivary Amylase Measurement</nciodm:PreferredTerm>
                </EnumeratedItem>
                <EnumeratedItem CodedValue="Amyloid A" nciodm:ExtCodeID="C125940">
                    <nciodm:CDISCSynonym>Amyloid A</nciodm:CDISCSynonym>
                    <nciodm:CDISCSynonym>Serum Amyloid A</nciodm:CDISCSynonym>
                    <nciodm:CDISCDefinition>A measurement of the total amyloid a (official name is Serum Amyloid A) in a biological specimen.</nciodm:CDISCDefinition>
                    <nciodm:PreferredTerm>Amyloid A Measurement</nciodm:PreferredTerm>
                </EnumeratedItem>
                <EnumeratedItem CodedValue="Amyloid Alpha Precursor Protein" nciodm:ExtCodeID="C119268">
                    <nciodm:CDISCSynonym>Amyloid Alpha Precursor Protein</nciodm:CDISCSynonym>
                    <nciodm:CDISCDefinition>A measurement of the amyloid alpha precursor protein present in a biological specimen.</nciodm:CDISCDefinition>
                    <nciodm:PreferredTerm>Amyloid Alpha Precursor Protein Measurement</nciodm:PreferredTerm>
                </EnumeratedItem>
                <EnumeratedItem CodedValue="Amyloid Beta 1-38" nciodm:ExtCodeID="C103352">
                    <nciodm:CDISCSynonym>Amyloid Beta 1-38</nciodm:CDISCSynonym>
                    <nciodm:CDISCSynonym>Amyloid Beta 38</nciodm:CDISCSynonym>
                    <nciodm:CDISCSynonym>Amyloid Beta 38 Protein</nciodm:CDISCSynonym>
                    <nciodm:CDISCDefinition>A measurement of amyloid beta protein which is composed of peptides 1 to 38 in a biological specimen.</nciodm:CDISCDefinition>
                    <nciodm:PreferredTerm>Amyloid Beta 1-38 Measurement</nciodm:PreferredTerm>
                </EnumeratedItem>
                <EnumeratedItem CodedValue="Amyloid Beta 1-40" nciodm:ExtCodeID="C103353">
                    <nciodm:CDISCSynonym>Amyloid Beta 1-40</nciodm:CDISCSynonym>
                    <nciodm:CDISCSynonym>Amyloid Beta 40</nciodm:CDISCSynonym>
                    <nciodm:CDISCSynonym>Amyloid Beta 40 Protein</nciodm:CDISCSynonym>
                    <nciodm:CDISCDefinition>A measurement of amyloid beta protein which is composed of peptides 1 to 40 in a biological specimen.</nciodm:CDISCDefinition>
                    <nciodm:PreferredTerm>Amyloid Beta 1-40 Measurement</nciodm:PreferredTerm>
                </EnumeratedItem>
                <EnumeratedItem CodedValue="Amyloid Beta 1-42" nciodm:ExtCodeID="C84809">
                    <nciodm:CDISCSynonym>Amyloid Beta 1-42</nciodm:CDISCSynonym>
                    <nciodm:CDISCSynonym>Amyloid Beta 42</nciodm:CDISCSynonym>
                    <nciodm:CDISCSynonym>Amyloid Beta 42 Protein</nciodm:CDISCSynonym>
                    <nciodm:CDISCDefinition>A measurement of amyloid beta protein which is composed of peptides 1 to 42 in a biological specimen.</nciodm:CDISCDefinition>
                    <nciodm:PreferredTerm>Beta Amyloid 42 Measurement</nciodm:PreferredTerm>
                </EnumeratedItem>
                <EnumeratedItem CodedValue="Amyloid Beta Precursor Protein" nciodm:ExtCodeID="C105438">
                    <nciodm:CDISCSynonym>Amyloid Beta Precursor</nciodm:CDISCSynonym>
                    <nciodm:CDISCSynonym>Amyloid Beta Precursor Protein</nciodm:CDISCSynonym>
                    <nciodm:CDISCSynonym>Amyloid Precursor Beta</nciodm:CDISCSynonym>
                    <nciodm:CDISCSynonym>Amyloid Precursor Protein</nciodm:CDISCSynonym>
                    <nciodm:CDISCDefinition>A measurement of the amyloid beta precursor protein present in a biological specimen.</nciodm:CDISCDefinition>
                    <nciodm:PreferredTerm>Amyloid Beta Precursor Protein Measurement</nciodm:PreferredTerm>
                </EnumeratedItem>
                <EnumeratedItem CodedValue="Amyloid P" nciodm:ExtCodeID="C81998">
                    <nciodm:CDISCSynonym>Amyloid P</nciodm:CDISCSynonym>
                    <nciodm:CDISCDefinition>A measurement of the total amyloid P in a biological specimen.</nciodm:CDISCDefinition>
                    <nciodm:PreferredTerm>Amyloid P Measurement</nciodm:PreferredTerm>
                </EnumeratedItem>
                <EnumeratedItem CodedValue="Amyloid, Beta" nciodm:ExtCodeID="C81999">
                    <nciodm:CDISCSynonym>Amyloid, Beta</nciodm:CDISCSynonym>
                    <nciodm:CDISCSynonym>Beta Amyloid</nciodm:CDISCSynonym>
                    <nciodm:CDISCDefinition>A measurement of the total amyloid beta in a biological specimen.</nciodm:CDISCDefinition>
                    <nciodm:PreferredTerm>Beta Amyloid Measurement</nciodm:PreferredTerm>
                </EnumeratedItem>
                <EnumeratedItem CodedValue="Androstenediol" nciodm:ExtCodeID="C74842">
                    <nciodm:CDISCSynonym>Androstenediol</nciodm:CDISCSynonym>
                    <nciodm:CDISCDefinition>A measurement of the androstenediol metabolite in a biological specimen.</nciodm:CDISCDefinition>
                    <nciodm:PreferredTerm>Androstenediol Metabolite Measurement</nciodm:PreferredTerm>
                </EnumeratedItem>
                <EnumeratedItem CodedValue="Androstenedione" nciodm:ExtCodeID="C74843">
                    <nciodm:CDISCSynonym>4-Androstenedione</nciodm:CDISCSynonym>
                    <nciodm:CDISCSynonym>Androstenedione</nciodm:CDISCSynonym>
                    <nciodm:CDISCDefinition>A measurement of the androstenedione hormone in a biological specimen.</nciodm:CDISCDefinition>
                    <nciodm:PreferredTerm>Androstenedione Measurement</nciodm:PreferredTerm>
                </EnumeratedItem>
                <EnumeratedItem CodedValue="Angiopoietin 1" nciodm:ExtCodeID="C111128">
                    <nciodm:CDISCSynonym>Angiopoietin 1</nciodm:CDISCSynonym>
                    <nciodm:CDISCDefinition>A measurement of angiopoietin 1 in a biological specimen.</nciodm:CDISCDefinition>
                    <nciodm:PreferredTerm>Angiopoietin 1 Measurement</nciodm:PreferredTerm>
                </EnumeratedItem>
                <EnumeratedItem CodedValue="Angiotensin Converting Enzyme" nciodm:ExtCodeID="C80169">
                    <nciodm:CDISCSynonym>Angiotensin Converting Enzyme</nciodm:CDISCSynonym>
                    <nciodm:CDISCDefinition>A measurement of the angiotensin converting enzyme in a biological specimen.</nciodm:CDISCDefinition>
                    <nciodm:PreferredTerm>Angiotensin Converting Enzyme Measurement</nciodm:PreferredTerm>
                </EnumeratedItem>
                <EnumeratedItem CodedValue="Angiotensin I" nciodm:ExtCodeID="C74844">
                    <nciodm:CDISCSynonym>Angiotensin I</nciodm:CDISCSynonym>
                    <nciodm:CDISCDefinition>A measurement of the angiotensin I hormone in a biological specimen.</nciodm:CDISCDefinition>
                    <nciodm:PreferredTerm>Angiotensin I Measurement</nciodm:PreferredTerm>
                </EnumeratedItem>
                <EnumeratedItem CodedValue="Angiotensin II" nciodm:ExtCodeID="C74845">
                    <nciodm:CDISCSynonym>Angiotensin II</nciodm:CDISCSynonym>
                    <nciodm:CDISCDefinition>A measurement of the angiotensin II hormone in a biological specimen.</nciodm:CDISCDefinition>
                    <nciodm:PreferredTerm>Angiotensin II Measurement</nciodm:PreferredTerm>
                </EnumeratedItem>
                <EnumeratedItem CodedValue="Angiotensinogen" nciodm:ExtCodeID="C74846">
                    <nciodm:CDISCSynonym>Angiotensin Precursor</nciodm:CDISCSynonym>
                    <nciodm:CDISCSynonym>Angiotensinogen</nciodm:CDISCSynonym>
                    <nciodm:CDISCDefinition>A measurement of the angiotensinogen hormone in a biological specimen.</nciodm:CDISCDefinition>
                    <nciodm:PreferredTerm>Angiotensinogen Measurement</nciodm:PreferredTerm>
                </EnumeratedItem>
                <EnumeratedItem CodedValue="Animal Mix Antigen IgE Antibody" nciodm:ExtCodeID="C130112">
                    <nciodm:CDISCSynonym>Animal Mix Antigen IgE Antibody</nciodm:CDISCSynonym>
                    <nciodm:CDISCDefinition>A measurement of the animal mix antigen IgE antibody in a biological specimen.</nciodm:CDISCDefinition>
                    <nciodm:PreferredTerm>Animal Mix Antigen IgE Antibody Measurement</nciodm:PreferredTerm>
                </EnumeratedItem>
                <EnumeratedItem CodedValue="Animal Mix Antigen IgG Antibody" nciodm:ExtCodeID="C130113">
                    <nciodm:CDISCSynonym>Animal Mix Antigen IgG Antibody</nciodm:CDISCSynonym>
                    <nciodm:CDISCDefinition>A measurement of the animal mix antigen IgG antibody in a biological specimen.</nciodm:CDISCDefinition>
                    <nciodm:PreferredTerm>Animal Mix Antigen IgG Antibody Measurement</nciodm:PreferredTerm>
                </EnumeratedItem>
                <EnumeratedItem CodedValue="Anion Gap" nciodm:ExtCodeID="C74685">
                    <nciodm:CDISCSynonym>Anion Gap</nciodm:CDISCSynonym>
                    <nciodm:CDISCDefinition>A computed estimate of the unmeasured anions (those other than the chloride and bicarbonate anions) in a biological specimen.</nciodm:CDISCDefinition>
                    <nciodm:PreferredTerm>Anion Gap Measurement</nciodm:PreferredTerm>
                </EnumeratedItem>
                <EnumeratedItem CodedValue="Anisocytes" nciodm:ExtCodeID="C74797">
                    <nciodm:CDISCSynonym>Anisocytes</nciodm:CDISCSynonym>
                    <nciodm:CDISCSynonym>Anisocytosis</nciodm:CDISCSynonym>
                    <nciodm:CDISCDefinition>A measurement of the variability in the size of the red blood cells in a whole blood specimen.</nciodm:CDISCDefinition>
                    <nciodm:PreferredTerm>Anisocyte Measurement</nciodm:PreferredTerm>
                </EnumeratedItem>
                <EnumeratedItem CodedValue="Anti-DNA Antibodies" nciodm:ExtCodeID="C81973">
                    <nciodm:CDISCSynonym>Anti-DNA Antibodies</nciodm:CDISCSynonym>
                    <nciodm:CDISCSynonym>Anti-ds-DNA Antibodies</nciodm:CDISCSynonym>
                    <nciodm:CDISCDefinition>A measurement of the anti-DNA antibodies in a biological specimen.</nciodm:CDISCDefinition>
                    <nciodm:PreferredTerm>Anti-DNA Antibody Measurement</nciodm:PreferredTerm>
                </EnumeratedItem>
                <EnumeratedItem CodedValue="Anti-Double Stranded DNA" nciodm:ExtCodeID="C74913">
                    <nciodm:CDISCSynonym>Anti-Double Stranded DNA</nciodm:CDISCSynonym>
                    <nciodm:CDISCDefinition>A measurement of the anti-double stranded DNA antibody in a biological specimen.</nciodm:CDISCDefinition>
                    <nciodm:PreferredTerm>Anti-Double Stranded DNA Measurement</nciodm:PreferredTerm>
                </EnumeratedItem>
                <EnumeratedItem CodedValue="Anti-Factor Xa Activity" nciodm:ExtCodeID="C98706">
                    <nciodm:CDISCSynonym>Anti-Factor Xa Activity</nciodm:CDISCSynonym>
                    <nciodm:CDISCDefinition>A measurement of the ability of antithrombin to inactivate activated Factor X in a biological specimen. This test is used to monitor low molecular weight or unfractionated heparin levels in a biological specimen.</nciodm:CDISCDefinition>
                    <nciodm:PreferredTerm>Anti-Factor Xa Activity Measurement</nciodm:PreferredTerm>
                </EnumeratedItem>
                <EnumeratedItem CodedValue="Anti-Mullerian Hormone" nciodm:ExtCodeID="C120625">
                    <nciodm:CDISCSynonym>Anti-Mullerian Hormone</nciodm:CDISCSynonym>
                    <nciodm:CDISCDefinition>A measurement of the anti-Mullerian hormone in a biological specimen.</nciodm:CDISCDefinition>
                    <nciodm:PreferredTerm>Anti-Mullerian Hormone Measurement</nciodm:PreferredTerm>
                </EnumeratedItem>
                <EnumeratedItem CodedValue="Anti-Neutrophil Cytoplasmic Antibody" nciodm:ExtCodeID="C120626">
                    <nciodm:CDISCSynonym>Anti-Neutrophil Cytoplasmic Antibody</nciodm:CDISCSynonym>
                    <nciodm:CDISCDefinition>A measurement of the anti-neutrophil cytoplasmic antibody in a biological specimen.</nciodm:CDISCDefinition>
                    <nciodm:PreferredTerm>Anti-Neutrophil Cytoplasmic Antibody Measurement</nciodm:PreferredTerm>
                </EnumeratedItem>
                <EnumeratedItem CodedValue="Anti-Nucleosome Antibody" nciodm:ExtCodeID="C120627">
                    <nciodm:CDISCSynonym>Anti-Nucleosome Antibody</nciodm:CDISCSynonym>
                    <nciodm:CDISCDefinition>A measurement of the anti-nucleosome antibody in a biological specimen.</nciodm:CDISCDefinition>
                    <nciodm:PreferredTerm>Anti-Nucleosome Antibody Measurement</nciodm:PreferredTerm>
                </EnumeratedItem>
                <EnumeratedItem CodedValue="Anti-Phospholipid IgG Antibody" nciodm:ExtCodeID="C124335">
                    <nciodm:CDISCSynonym>Anti-Phospholipid IgG Antibody</nciodm:CDISCSynonym>
                    <nciodm:CDISCDefinition>A measurement of the antiphospholipid IgG antibody in a biological specimen.</nciodm:CDISCDefinition>
                    <nciodm:PreferredTerm>Anti-Phospholipid IgG Antibody Measurement</nciodm:PreferredTerm>
                </EnumeratedItem>
                <EnumeratedItem CodedValue="Anti-Phospholipid IgM Antibody" nciodm:ExtCodeID="C124336">
                    <nciodm:CDISCSynonym>Anti-Phospholipid IgM Antibody</nciodm:CDISCSynonym>
                    <nciodm:CDISCDefinition>A measurement of the antiphospholipid IgM antibody in a biological specimen.</nciodm:CDISCDefinition>
                    <nciodm:PreferredTerm>Anti-Phospholipid IgM Antibody Measurement</nciodm:PreferredTerm>
                </EnumeratedItem>
                <EnumeratedItem CodedValue="Anti-Saccharomyces cerevisiae Antibody" nciodm:ExtCodeID="C81976">
                    <nciodm:CDISCSynonym>Anti-Saccharomyces cerevisiae Antibody</nciodm:CDISCSynonym>
                    <nciodm:CDISCDefinition>A measurement of the anti-Saccharomyces cerevisiae antibody in a biological specimen.</nciodm:CDISCDefinition>
                    <nciodm:PreferredTerm>Anti-Saccharomyces cerevisiae Antibody Measurement</nciodm:PreferredTerm>
                </EnumeratedItem>
                <EnumeratedItem CodedValue="Anti-Single Stranded DNA IgG" nciodm:ExtCodeID="C92269">
                    <nciodm:CDISCSynonym>Anti-Single Stranded DNA IgG</nciodm:CDISCSynonym>
                    <nciodm:CDISCDefinition>A measurement of the anti-single stranded DNA IgG antibody in a biological specimen.</nciodm:CDISCDefinition>
                    <nciodm:PreferredTerm>Anti-Single Stranded DNA IgG Measurement</nciodm:PreferredTerm>
                </EnumeratedItem>
                <EnumeratedItem CodedValue="Antidepressants" nciodm:ExtCodeID="C74691">
                    <nciodm:CDISCSynonym>Antidepressants</nciodm:CDISCSynonym>
                    <nciodm:CDISCDefinition>A measurement of any antidepressant class drug present in a biological specimen.</nciodm:CDISCDefinition>
                    <nciodm:PreferredTerm>Antidepressant Measurement</nciodm:PreferredTerm>
                </EnumeratedItem>
                <EnumeratedItem CodedValue="Antidiuretic Hormone" nciodm:ExtCodeID="C74847">
                    <nciodm:CDISCSynonym>Antidiuretic Hormone</nciodm:CDISCSynonym>
                    <nciodm:CDISCSynonym>Vasopressin</nciodm:CDISCSynonym>
                    <nciodm:CDISCDefinition>A measurement of the antidiuretic hormone in a biological specimen.</nciodm:CDISCDefinition>
                    <nciodm:PreferredTerm>Antidiuretic Hormone Measurement</nciodm:PreferredTerm>
                </EnumeratedItem>
                <EnumeratedItem CodedValue="Antiglobulin Test, Direct" nciodm:ExtCodeID="C81974">
                    <nciodm:CDISCSynonym>Antiglobulin Test, Direct</nciodm:CDISCSynonym>
                    <nciodm:CDISCSynonym>Direct Coombs Test</nciodm:CDISCSynonym>
                    <nciodm:CDISCDefinition>A measurement of the antibody or complement-coated erythrocytes in a biological specimen in vivo.</nciodm:CDISCDefinition>
                    <nciodm:PreferredTerm>Direct Antiglobulin Test</nciodm:PreferredTerm>
                </EnumeratedItem>
                <EnumeratedItem CodedValue="Antiglobulin Test, Indirect" nciodm:ExtCodeID="C91372">
                    <nciodm:CDISCSynonym>Antiglobulin Test, Indirect</nciodm:CDISCSynonym>
                    <nciodm:CDISCSynonym>Indirect Coombs Test</nciodm:CDISCSynonym>
                    <nciodm:CDISCDefinition>A test that uses Coombs' reagent to detect the presence of anti-erythrocyte antibodies in a biological specimen.</nciodm:CDISCDefinition>
                    <nciodm:PreferredTerm>Indirect Antiglobulin Test</nciodm:PreferredTerm>
                </EnumeratedItem>
                <EnumeratedItem CodedValue="Antimitochondrial Antibodies" nciodm:ExtCodeID="C81975">
                    <nciodm:CDISCSynonym>Antimitochondrial Antibodies</nciodm:CDISCSynonym>
                    <nciodm:CDISCSynonym>Mitochondrial Antibody</nciodm:CDISCSynonym>
                    <nciodm:CDISCDefinition>A measurement of the antimitochondrial antibodies in a biological specimen.</nciodm:CDISCDefinition>
                    <nciodm:PreferredTerm>Antimitochondrial Antibody Measurement</nciodm:PreferredTerm>
                </EnumeratedItem>
                <EnumeratedItem CodedValue="Antinuclear Antibodies" nciodm:ExtCodeID="C74916">
                    <nciodm:CDISCSynonym>Antinuclear Antibodies</nciodm:CDISCSynonym>
                    <nciodm:CDISCDefinition>A measurement of the total antinuclear antibodies (antibodies that attack the body's own tissue) in a biological specimen.</nciodm:CDISCDefinition>
                    <nciodm:PreferredTerm>Antinuclear Antibody Measurement</nciodm:PreferredTerm>
                </EnumeratedItem>
                <EnumeratedItem CodedValue="Antinuclear IgG Antibody" nciodm:ExtCodeID="C122093">
                    <nciodm:CDISCSynonym>Antinuclear IgG Antibody</nciodm:CDISCSynonym>
                    <nciodm:CDISCDefinition>A measurement of the antinuclear IgG antibody in a biological specimen.</nciodm:CDISCDefinition>
                    <nciodm:PreferredTerm>Antinuclear IgG Antibody Measurement</nciodm:PreferredTerm>
                </EnumeratedItem>
                <EnumeratedItem CodedValue="Antiphospholipid Antibodies" nciodm:ExtCodeID="C102258">
                    <nciodm:CDISCSynonym>Antiphospholipid Antibodies</nciodm:CDISCSynonym>
                    <nciodm:CDISCDefinition>A measurement of the total antiphospholipid antibodies in a biological specimen.</nciodm:CDISCDefinition>
                    <nciodm:PreferredTerm>Antiphospholipid Antibody Measurement</nciodm:PreferredTerm>
                </EnumeratedItem>
                <EnumeratedItem CodedValue="Antithrombin" nciodm:ExtCodeID="C81958">
                    <nciodm:CDISCSynonym>Antithrombin</nciodm:CDISCSynonym>
                    <nciodm:CDISCSynonym>Antithrombin Activity</nciodm:CDISCSynonym>
                    <nciodm:CDISCSynonym>Antithrombin III</nciodm:CDISCSynonym>
                    <nciodm:CDISCSynonym>Antithrombin III Activity</nciodm:CDISCSynonym>
                    <nciodm:CDISCDefinition>A measurement of the antithrombin activity in a biological specimen.</nciodm:CDISCDefinition>
                    <nciodm:PreferredTerm>Antithrombin Activity Measurement</nciodm:PreferredTerm>
                </EnumeratedItem>
                <EnumeratedItem CodedValue="Antithrombin Antigen" nciodm:ExtCodeID="C81977">
                    <nciodm:CDISCSynonym>Antithrombin Antigen</nciodm:CDISCSynonym>
                    <nciodm:CDISCSynonym>Antithrombin III Antigen</nciodm:CDISCSynonym>
                    <nciodm:CDISCDefinition>A measurement of the antithrombin antigen in a biological specimen.</nciodm:CDISCDefinition>
                    <nciodm:PreferredTerm>Antithrombin Antigen Measurement</nciodm:PreferredTerm>
                </EnumeratedItem>
                <EnumeratedItem CodedValue="Apolipoprotein A" nciodm:ExtCodeID="C124337">
                    <nciodm:CDISCSynonym>Apolipoprotein A</nciodm:CDISCSynonym>
                    <nciodm:CDISCDefinition>A measurement of the total apolipoprotein A in a biological specimen.</nciodm:CDISCDefinition>
                    <nciodm:PreferredTerm>Apolipoprotein A Measurement</nciodm:PreferredTerm>
                </EnumeratedItem>
                <EnumeratedItem CodedValue="Apolipoprotein A1" nciodm:ExtCodeID="C74733">
                    <nciodm:CDISCSynonym>Apolipoprotein A1</nciodm:CDISCSynonym>
                    <nciodm:CDISCDefinition>A measurement of the apolipoprotein A1 in a biological specimen.</nciodm:CDISCDefinition>
                    <nciodm:PreferredTerm>Apolipoprotein A1 Measurement</nciodm:PreferredTerm>
                </EnumeratedItem>
                <EnumeratedItem CodedValue="Apolipoprotein A4" nciodm:ExtCodeID="C103354">
                    <nciodm:CDISCSynonym>Apolipoprotein A4</nciodm:CDISCSynonym>
                    <nciodm:CDISCDefinition>A measurement of the apolipoprotein A4 in a biological specimen.</nciodm:CDISCDefinition>
                    <nciodm:PreferredTerm>Apolipoprotein A4 Measurement</nciodm:PreferredTerm>
                </EnumeratedItem>
                <EnumeratedItem CodedValue="Apolipoprotein A5" nciodm:ExtCodeID="C103355">
                    <nciodm:CDISCSynonym>Apolipoprotein A5</nciodm:CDISCSynonym>
                    <nciodm:CDISCDefinition>A measurement of the apolipoprotein A5 in a biological specimen.</nciodm:CDISCDefinition>
                    <nciodm:PreferredTerm>Apolipoprotein A5 Measurement</nciodm:PreferredTerm>
                </EnumeratedItem>
                <EnumeratedItem CodedValue="Apolipoprotein AII" nciodm:ExtCodeID="C82000">
                    <nciodm:CDISCSynonym>Apolipoprotein AII</nciodm:CDISCSynonym>
                    <nciodm:CDISCDefinition>A measurement of the apolipoprotein AII in a biological specimen.</nciodm:CDISCDefinition>
                    <nciodm:PreferredTerm>Apolipoprotein AII Measurement</nciodm:PreferredTerm>
                </EnumeratedItem>
                <EnumeratedItem CodedValue="Apolipoprotein B" nciodm:ExtCodeID="C74734">
                    <nciodm:CDISCSynonym>Apolipoprotein B</nciodm:CDISCSynonym>
                    <nciodm:CDISCDefinition>A measurement of the total apolipoprotein B in a biological specimen.</nciodm:CDISCDefinition>
                    <nciodm:PreferredTerm>Apolipoprotein B Measurement</nciodm:PreferredTerm>
                </EnumeratedItem>
                <EnumeratedItem CodedValue="Apolipoprotein B/Apolipoprotein A1" nciodm:ExtCodeID="C103356">
                    <nciodm:CDISCSynonym>Apolipoprotein B/Apolipoprotein A1</nciodm:CDISCSynonym>
                    <nciodm:CDISCDefinition>A relative measurement (ratio or percentage) of the Apolipoprotein B to Apolipoprotein A1 in a biological specimen.</nciodm:CDISCDefinition>
                    <nciodm:PreferredTerm>Apolipoprotein B to Apolipoprotein A1 Ratio Measurement</nciodm:PreferredTerm>
                </EnumeratedItem>
                <EnumeratedItem CodedValue="Apolipoprotein B100" nciodm:ExtCodeID="C120628">
                    <nciodm:CDISCSynonym>Apolipoprotein B100</nciodm:CDISCSynonym>
                    <nciodm:CDISCDefinition>A measurement of the apolipoprotein B100 in a biological specimen.</nciodm:CDISCDefinition>
                    <nciodm:PreferredTerm>Apolipoprotein B100 Measurement</nciodm:PreferredTerm>
                </EnumeratedItem>
                <EnumeratedItem CodedValue="Apolipoprotein B48" nciodm:ExtCodeID="C120629">
                    <nciodm:CDISCSynonym>Apolipoprotein B48</nciodm:CDISCSynonym>
                    <nciodm:CDISCDefinition>A measurement of the apolipoprotein B48 in a biological specimen.</nciodm:CDISCDefinition>
                    <nciodm:PreferredTerm>Apolipoprotein B48 Measurement</nciodm:PreferredTerm>
                </EnumeratedItem>
                <EnumeratedItem CodedValue="Apolipoprotein C2" nciodm:ExtCodeID="C100427">
                    <nciodm:CDISCSynonym>Apolipoprotein C2</nciodm:CDISCSynonym>
                    <nciodm:CDISCSynonym>Apolipoprotein CII</nciodm:CDISCSynonym>
                    <nciodm:CDISCDefinition>A measurement of the apolipoprotein C2 in a biological specimen.</nciodm:CDISCDefinition>
                    <nciodm:PreferredTerm>Apolipoprotein C2 Measurement</nciodm:PreferredTerm>
                </EnumeratedItem>
                <EnumeratedItem CodedValue="Apolipoprotein CI" nciodm:ExtCodeID="C120630">
                    <nciodm:CDISCSynonym>Apolipoprotein CI</nciodm:CDISCSynonym>
                    <nciodm:CDISCDefinition>A measurement of the apolipoprotein CI in a biological specimen.</nciodm:CDISCDefinition>
                    <nciodm:PreferredTerm>Apolipoprotein CI Measurement</nciodm:PreferredTerm>
                </EnumeratedItem>
                <EnumeratedItem CodedValue="Apolipoprotein CIII" nciodm:ExtCodeID="C82001">
                    <nciodm:CDISCSynonym>Apolipoprotein CIII</nciodm:CDISCSynonym>
                    <nciodm:CDISCDefinition>A measurement of the apolipoprotein CIII in a biological specimen.</nciodm:CDISCDefinition>
                    <nciodm:PreferredTerm>Apolipoprotein CIII Measurement</nciodm:PreferredTerm>
                </EnumeratedItem>
                <EnumeratedItem CodedValue="Apolipoprotein E" nciodm:ExtCodeID="C82002">
                    <nciodm:CDISCSynonym>Apolipoprotein E</nciodm:CDISCSynonym>
                    <nciodm:CDISCDefinition>A measurement of the apolipoprotein E in a biological specimen.</nciodm:CDISCDefinition>
                    <nciodm:PreferredTerm>Apolipoprotein E Measurement</nciodm:PreferredTerm>
                </EnumeratedItem>
                <EnumeratedItem CodedValue="Apolipoprotein E4" nciodm:ExtCodeID="C92293">
                    <nciodm:CDISCSynonym>Apolipoprotein E4</nciodm:CDISCSynonym>
                    <nciodm:CDISCDefinition>A measurement of the apolipoprotein E4 in a biological specimen.</nciodm:CDISCDefinition>
                    <nciodm:PreferredTerm>Apolipoprotein E4 Measurement</nciodm:PreferredTerm>
                </EnumeratedItem>
                <EnumeratedItem CodedValue="Apolipoprotein H" nciodm:ExtCodeID="C82003">
                    <nciodm:CDISCSynonym>Apolipoprotein H</nciodm:CDISCSynonym>
                    <nciodm:CDISCDefinition>A measurement of the apolipoprotein H in a biological specimen.</nciodm:CDISCDefinition>
                    <nciodm:PreferredTerm>Apolipoprotein H Measurement</nciodm:PreferredTerm>
                </EnumeratedItem>
                <EnumeratedItem CodedValue="Apolipoprotein J" nciodm:ExtCodeID="C100428">
                    <nciodm:CDISCSynonym>Apolipoprotein J</nciodm:CDISCSynonym>
                    <nciodm:CDISCSynonym>Clusterin</nciodm:CDISCSynonym>
                    <nciodm:CDISCDefinition>A measurement of the apolipoprotein J in a biological specimen.</nciodm:CDISCDefinition>
                    <nciodm:PreferredTerm>Apolipoprotein J Measurement</nciodm:PreferredTerm>
                </EnumeratedItem>
                <EnumeratedItem CodedValue="Apolipoprotein J/Creatinine" nciodm:ExtCodeID="C111130">
                    <nciodm:CDISCSynonym>Apolipoprotein J/Creatinine</nciodm:CDISCSynonym>
                    <nciodm:CDISCSynonym>Clusterin/Creatinine</nciodm:CDISCSynonym>
                    <nciodm:CDISCDefinition>A relative measurement (ratio or percentage) of the apolipoprotein J to creatinine in a biological specimen.</nciodm:CDISCDefinition>
                    <nciodm:PreferredTerm>Apolipoprotein J to Creatinine Ratio Measurement</nciodm:PreferredTerm>
                </EnumeratedItem>
                <EnumeratedItem CodedValue="Arachidonic Acid" nciodm:ExtCodeID="C102259">
                    <nciodm:CDISCSynonym>Arachidonic Acid</nciodm:CDISCSynonym>
                    <nciodm:CDISCDefinition>A measurement of the arachidonic acid present in a biological specimen.</nciodm:CDISCDefinition>
                    <nciodm:PreferredTerm>Arachidonic Acid Measurement</nciodm:PreferredTerm>
                </EnumeratedItem>
                <EnumeratedItem CodedValue="Arginine" nciodm:ExtCodeID="C122095">
                    <nciodm:CDISCSynonym>Arginine</nciodm:CDISCSynonym>
                    <nciodm:CDISCDefinition>A measurement of the arginine in a biological specimen.</nciodm:CDISCDefinition>
                    <nciodm:PreferredTerm>Arginine Measurement</nciodm:PreferredTerm>
                </EnumeratedItem>
                <EnumeratedItem CodedValue="Asparagine" nciodm:ExtCodeID="C122096">
                    <nciodm:CDISCSynonym>Asparagine</nciodm:CDISCSynonym>
                    <nciodm:CDISCDefinition>A measurement of the asparagine in a biological specimen.</nciodm:CDISCDefinition>
                    <nciodm:PreferredTerm>Asparagine Measurement</nciodm:PreferredTerm>
                </EnumeratedItem>
                <EnumeratedItem CodedValue="Aspartate Aminotransferase" nciodm:ExtCodeID="C64467">
                    <nciodm:CDISCSynonym>Aspartate Aminotransferase</nciodm:CDISCSynonym>
                    <nciodm:CDISCSynonym>SGOT</nciodm:CDISCSynonym>
                    <nciodm:CDISCDefinition>A measurement of the aspartate aminotransferase in a biological specimen.</nciodm:CDISCDefinition>
                    <nciodm:PreferredTerm>Aspartate Aminotransferase Measurement</nciodm:PreferredTerm>
                </EnumeratedItem>
                <EnumeratedItem CodedValue="Aspartate Aminotransferase Antigen" nciodm:ExtCodeID="C81978">
                    <nciodm:CDISCSynonym>Aspartate Aminotransferase Antigen</nciodm:CDISCSynonym>
                    <nciodm:CDISCSynonym>SGOT Antigen</nciodm:CDISCSynonym>
                    <nciodm:CDISCDefinition>A measurement of the aspartate aminotransferase antigen in a biological specimen.</nciodm:CDISCDefinition>
                    <nciodm:PreferredTerm>Aspartate Aminotransferase Antigen Measurement</nciodm:PreferredTerm>
                </EnumeratedItem>
                <EnumeratedItem CodedValue="Aspartate Aminotransferase/Creatinine" nciodm:ExtCodeID="C117830">
                    <nciodm:CDISCSynonym>Aspartate Aminotransferase/Creatinine</nciodm:CDISCSynonym>
                    <nciodm:CDISCDefinition>A relative measurement (ratio or percentage) of the aspartate aminotransferase to creatinine in a biological specimen.</nciodm:CDISCDefinition>
                    <nciodm:PreferredTerm>Aspartate Aminotransferase to Creatinine Ratio Measurement</nciodm:PreferredTerm>
                </EnumeratedItem>
                <EnumeratedItem CodedValue="Aspartic Acid" nciodm:ExtCodeID="C122097">
                    <nciodm:CDISCSynonym>Aspartate</nciodm:CDISCSynonym>
                    <nciodm:CDISCSynonym>Aspartic Acid</nciodm:CDISCSynonym>
                    <nciodm:CDISCDefinition>A measurement of the aspartic acid in a biological specimen.</nciodm:CDISCDefinition>
                    <nciodm:PreferredTerm>Aspartic Acid Measurement</nciodm:PreferredTerm>
                </EnumeratedItem>
                <EnumeratedItem CodedValue="Atrial Natriuretic Peptide" nciodm:ExtCodeID="C74886">
                    <nciodm:CDISCSynonym>Atrial Natriuretic Peptide</nciodm:CDISCSynonym>
                    <nciodm:CDISCSynonym>Atriopeptin</nciodm:CDISCSynonym>
                    <nciodm:CDISCDefinition>A measurement of the atrial natriuretic peptide in a biological specimen.</nciodm:CDISCDefinition>
                    <nciodm:PreferredTerm>Atrial Natriuretic Peptide Measurement</nciodm:PreferredTerm>
                </EnumeratedItem>
                <EnumeratedItem CodedValue="Auer Rods" nciodm:ExtCodeID="C74657">
                    <nciodm:CDISCSynonym>Auer Rods</nciodm:CDISCSynonym>
                    <nciodm:CDISCDefinition>A measurement of the Auer rods (elongated needle structures that are found in the cytoplasm of leukemic blasts and are formed by clumps of azurophilic granular material) in a biological specimen.</nciodm:CDISCDefinition>
                    <nciodm:PreferredTerm>Auer Rod Measurement</nciodm:PreferredTerm>
                </EnumeratedItem>
                <EnumeratedItem CodedValue="Azurophilic Granules" nciodm:ExtCodeID="C116185">
                    <nciodm:CDISCSynonym>Azurophilic Granulation</nciodm:CDISCSynonym>
                    <nciodm:CDISCSynonym>Azurophilic Granules</nciodm:CDISCSynonym>
                    <nciodm:CDISCDefinition>An observation of azurophilic granules in a biological specimen.</nciodm:CDISCDefinition>
                    <nciodm:PreferredTerm>Azurophilic Granule Measurement</nciodm:PreferredTerm>
                </EnumeratedItem>
                <EnumeratedItem CodedValue="B-Cell Activating Factor" nciodm:ExtCodeID="C111135">
                    <nciodm:CDISCSynonym>B-Cell Activating Factor</nciodm:CDISCSynonym>
                    <nciodm:CDISCDefinition>A measurement of the B-cell activating factor in a biological specimen.</nciodm:CDISCDefinition>
                    <nciodm:PreferredTerm>B-Cell Activating Factor Measurement</nciodm:PreferredTerm>
                </EnumeratedItem>
                <EnumeratedItem CodedValue="B-lymphocyte Crossmatch" nciodm:ExtCodeID="C128951">
                    <nciodm:CDISCSynonym>B-lymphocyte Crossmatch</nciodm:CDISCSynonym>
                    <nciodm:CDISCDefinition>A measurement to determine human leukocyte antigens (HLA) histocompatibility between the recipient and the donor by examining the presence or absence of the recipient's anti-HLA antibody reactivity towards HLA antigens expressed on the donor B-lymphocytes.</nciodm:CDISCDefinition>
                    <nciodm:PreferredTerm>B-lymphocyte Crossmatch Measurement</nciodm:PreferredTerm>
                </EnumeratedItem>
                <EnumeratedItem CodedValue="Bacteria" nciodm:ExtCodeID="C64469">
                    <nciodm:CDISCSynonym>Bacteria</nciodm:CDISCSynonym>
                    <nciodm:CDISCDefinition>A measurement of the bacteria in a biological specimen.</nciodm:CDISCDefinition>
                    <nciodm:PreferredTerm>Bacterial Count</nciodm:PreferredTerm>
                </EnumeratedItem>
                <EnumeratedItem CodedValue="Bacterial Casts" nciodm:ExtCodeID="C74762">
                    <nciodm:CDISCSynonym>Bacterial Casts</nciodm:CDISCSynonym>
                    <nciodm:CDISCDefinition>A measurement of the bacterial casts present in a biological specimen.</nciodm:CDISCDefinition>
                    <nciodm:PreferredTerm>Bacterial Cast Measurement</nciodm:PreferredTerm>
                </EnumeratedItem>
                <EnumeratedItem CodedValue="Bactericidal/Permeability-Inc Protein Ab" nciodm:ExtCodeID="C120631">
                    <nciodm:CDISCSynonym>BPI Auto-antibody</nciodm:CDISCSynonym>
                    <nciodm:CDISCSynonym>Bactericidal/Permeability-Inc Protein Ab</nciodm:CDISCSynonym>
                    <nciodm:CDISCDefinition>A measurement of the bactericidal/permeability-increasing protein antibody in a biological specimen.</nciodm:CDISCDefinition>
                    <nciodm:PreferredTerm>Bactericidal/Permeability-Increasing Protein Antibody Measurement</nciodm:PreferredTerm>
                </EnumeratedItem>
                <EnumeratedItem CodedValue="Barbiturates" nciodm:ExtCodeID="C74688">
                    <nciodm:CDISCSynonym>Barbiturates</nciodm:CDISCSynonym>
                    <nciodm:CDISCDefinition>A measurement of any barbiturate class drug present in a biological specimen.</nciodm:CDISCDefinition>
                    <nciodm:PreferredTerm>Barbiturate Drug Class Measurement</nciodm:PreferredTerm>
                </EnumeratedItem>
                <EnumeratedItem CodedValue="Base Excess" nciodm:ExtCodeID="C119270">
                    <nciodm:CDISCSynonym>Base Excess</nciodm:CDISCSynonym>
                    <nciodm:CDISCDefinition>A measurement of the amount of acid or alkali required to return a biological specimen to a normal pH under standard conditions.</nciodm:CDISCDefinition>
                    <nciodm:PreferredTerm>Base Excess Measurement</nciodm:PreferredTerm>
                </EnumeratedItem>
                <EnumeratedItem CodedValue="Basophilic Stippling" nciodm:ExtCodeID="C96567">
                    <nciodm:CDISCSynonym>Basophilic Stippling</nciodm:CDISCSynonym>
                    <nciodm:CDISCDefinition>A measurement of the basophilic stippling in a biological specimen.</nciodm:CDISCDefinition>
                    <nciodm:PreferredTerm>Basophilic Stippling Measurement</nciodm:PreferredTerm>
                </EnumeratedItem>
                <EnumeratedItem CodedValue="Basophils" nciodm:ExtCodeID="C64470">
                    <nciodm:CDISCSynonym>Basophils</nciodm:CDISCSynonym>
                    <nciodm:CDISCDefinition>A measurement of the basophils in a biological specimen.</nciodm:CDISCDefinition>
                    <nciodm:PreferredTerm>Total Basophil Count</nciodm:PreferredTerm>
                </EnumeratedItem>
                <EnumeratedItem CodedValue="Basophils Band Form" nciodm:ExtCodeID="C130154">
                    <nciodm:CDISCSynonym>Basophils Band Form</nciodm:CDISCSynonym>
                    <nciodm:CDISCDefinition>A measurement of the banded basophils in a biological specimen.</nciodm:CDISCDefinition>
                    <nciodm:PreferredTerm>Basophil Band Form Count</nciodm:PreferredTerm>
                </EnumeratedItem>
                <EnumeratedItem CodedValue="Basophils Band Form/Leukocytes" nciodm:ExtCodeID="C130155">
                    <nciodm:CDISCSynonym>Basophils Band Form/Leukocytes</nciodm:CDISCSynonym>
                    <nciodm:CDISCDefinition>A relative measurement (ratio or percentage) of the banded basophils to leukocytes in a biological specimen.</nciodm:CDISCDefinition>
                    <nciodm:PreferredTerm>Basophil Band Form to Leukocytes Ratio Measurement</nciodm:PreferredTerm>
                </EnumeratedItem>
                <EnumeratedItem CodedValue="Basophils/Leukocytes" nciodm:ExtCodeID="C64471">
                    <nciodm:CDISCSynonym>Basophils/Leukocytes</nciodm:CDISCSynonym>
                    <nciodm:CDISCDefinition>A relative measurement (ratio or percentage) of the basophils to leukocytes in a biological specimen.</nciodm:CDISCDefinition>
                    <nciodm:PreferredTerm>Basophil to Leukocyte Ratio</nciodm:PreferredTerm>
                </EnumeratedItem>
                <EnumeratedItem CodedValue="Basophils/Total Cells" nciodm:ExtCodeID="C98865">
                    <nciodm:CDISCSynonym>Basophils/Total Cells</nciodm:CDISCSynonym>
                    <nciodm:CDISCDefinition>A relative measurement (ratio or percentage) of the basophils to total cells in a biological specimen (for example a bone marrow specimen).</nciodm:CDISCDefinition>
                    <nciodm:PreferredTerm>Basophil to Total Cell Ratio Measurement</nciodm:PreferredTerm>
                </EnumeratedItem>
                <EnumeratedItem CodedValue="Bee Mix Antigen IgE Antibody" nciodm:ExtCodeID="C130116">
                    <nciodm:CDISCSynonym>Bee Mix Antigen IgE Antibody</nciodm:CDISCSynonym>
                    <nciodm:CDISCDefinition>A measurement of the bee mix antigen IgE antibody in a biological specimen.</nciodm:CDISCDefinition>
                    <nciodm:PreferredTerm>Bee Mix Antigen IgE Antibody Measurement</nciodm:PreferredTerm>
                </EnumeratedItem>
                <EnumeratedItem CodedValue="Bee Mix Antigen IgG Antibody" nciodm:ExtCodeID="C130117">
                    <nciodm:CDISCSynonym>Bee Mix Antigen IgG Antibody</nciodm:CDISCSynonym>
                    <nciodm:CDISCDefinition>A measurement of the bee mix antigen IgG antibody in a biological specimen.</nciodm:CDISCDefinition>
                    <nciodm:PreferredTerm>Bee Mix Antigen IgG Antibody Measurement</nciodm:PreferredTerm>
                </EnumeratedItem>
                <EnumeratedItem CodedValue="Bee Mix Antigen IgG4 Antibody" nciodm:ExtCodeID="C130118">
                    <nciodm:CDISCSynonym>Bee Mix Antigen IgG4 Antibody</nciodm:CDISCSynonym>
                    <nciodm:CDISCDefinition>A measurement of the bee mix antigen IgG4 antibody in a biological specimen.</nciodm:CDISCDefinition>
                    <nciodm:PreferredTerm>Bee Mix Antigen IgG4 Antibody Measurement</nciodm:PreferredTerm>
                </EnumeratedItem>
                <EnumeratedItem CodedValue="Bence-Jones Protein" nciodm:ExtCodeID="C111136">
                    <nciodm:CDISCSynonym>Bence-Jones Protein</nciodm:CDISCSynonym>
                    <nciodm:CDISCSynonym>Immunoglobulin Light Chains</nciodm:CDISCSynonym>
                    <nciodm:CDISCDefinition>A measurement of the total Bence-Jones protein in a biological specimen.</nciodm:CDISCDefinition>
                    <nciodm:PreferredTerm>Bence-Jones Protein Measurement</nciodm:PreferredTerm>
                </EnumeratedItem>
                <EnumeratedItem CodedValue="Benzodiazepine" nciodm:ExtCodeID="C74692">
                    <nciodm:CDISCSynonym>Benzodiazepine</nciodm:CDISCSynonym>
                    <nciodm:CDISCDefinition>A measurement of any benzodiazepine class drug present in a biological specimen.</nciodm:CDISCDefinition>
                    <nciodm:PreferredTerm>Benzodiazepine Measurement</nciodm:PreferredTerm>
                </EnumeratedItem>
                <EnumeratedItem CodedValue="Benzoylecgonine" nciodm:ExtCodeID="C75350">
                    <nciodm:CDISCSynonym>Benzoylecgonine</nciodm:CDISCSynonym>
                    <nciodm:CDISCSynonym>Cocaine Metabolite</nciodm:CDISCSynonym>
                    <nciodm:CDISCDefinition>A measurement of the benzoylecgonine in a biological specimen.</nciodm:CDISCDefinition>
                    <nciodm:PreferredTerm>Benzoylecgonine Measurement</nciodm:PreferredTerm>
                </EnumeratedItem>
                <EnumeratedItem CodedValue="Bermuda Grass Pollen IgA" nciodm:ExtCodeID="C130069">
                    <nciodm:CDISCSynonym>Bermuda Grass Pollen IgA</nciodm:CDISCSynonym>
                    <nciodm:CDISCDefinition>A measurement of the Cynodon dactylon pollen antigen IgA antibody in a biological specimen.</nciodm:CDISCDefinition>
                    <nciodm:PreferredTerm>Bermuda Grass Pollen IgA Measurement</nciodm:PreferredTerm>
                </EnumeratedItem>
                <EnumeratedItem CodedValue="Bermuda Grass Pollen IgE" nciodm:ExtCodeID="C130068">
                    <nciodm:CDISCSynonym>Bermuda Grass Pollen IgE</nciodm:CDISCSynonym>
                    <nciodm:CDISCDefinition>A measurement of the Cynodon dactylon pollen antigen IgE antibody in a biological specimen.</nciodm:CDISCDefinition>
                    <nciodm:PreferredTerm>Bermuda Grass Pollen IgE Measurement</nciodm:PreferredTerm>
                </EnumeratedItem>
                <EnumeratedItem CodedValue="Bermuda Grass Pollen IgG" nciodm:ExtCodeID="C130070">
                    <nciodm:CDISCSynonym>Bermuda Grass Pollen IgG</nciodm:CDISCSynonym>
                    <nciodm:CDISCDefinition>A measurement of the Cynodon dactylon pollen antigen IgG antibody in a biological specimen.</nciodm:CDISCDefinition>
                    <nciodm:PreferredTerm>Bermuda Grass Pollen IgG Measurement</nciodm:PreferredTerm>
                </EnumeratedItem>
                <EnumeratedItem CodedValue="Bermuda Grass Pollen IgG4" nciodm:ExtCodeID="C130071">
                    <nciodm:CDISCSynonym>Bermuda Grass Pollen IgG4</nciodm:CDISCSynonym>
                    <nciodm:CDISCDefinition>A measurement of the Cynodon dactylon pollen antigen IgG4 antibody in a biological specimen.</nciodm:CDISCDefinition>
                    <nciodm:PreferredTerm>Bermuda Grass Pollen IgG4 Measurement</nciodm:PreferredTerm>
                </EnumeratedItem>
                <EnumeratedItem CodedValue="Beta Carotene" nciodm:ExtCodeID="C100472">
                    <nciodm:CDISCSynonym>Beta Carotene</nciodm:CDISCSynonym>
                    <nciodm:CDISCSynonym>Beta Carotin</nciodm:CDISCSynonym>
                    <nciodm:CDISCSynonym>b-Carotene</nciodm:CDISCSynonym>
                    <nciodm:CDISCDefinition>A measurement of the beta carotene in a biological specimen.</nciodm:CDISCDefinition>
                    <nciodm:PreferredTerm>Beta Carotene Measurement</nciodm:PreferredTerm>
                </EnumeratedItem>
                <EnumeratedItem CodedValue="Beta Catenin" nciodm:ExtCodeID="C103357">
                    <nciodm:CDISCSynonym>Beta Catenin</nciodm:CDISCSynonym>
                    <nciodm:CDISCDefinition>A measurement of the beta catenin in a biological specimen.</nciodm:CDISCDefinition>
                    <nciodm:PreferredTerm>Beta Catenin Measurement</nciodm:PreferredTerm>
                </EnumeratedItem>
                <EnumeratedItem CodedValue="Beta Globulin" nciodm:ExtCodeID="C92256">
                    <nciodm:CDISCSynonym>Beta Globulin</nciodm:CDISCSynonym>
                    <nciodm:CDISCDefinition>A measurement of the proteins contributing to the beta fraction in a biological specimen.</nciodm:CDISCDefinition>
                    <nciodm:PreferredTerm>Beta Globulin Measurement</nciodm:PreferredTerm>
                </EnumeratedItem>
                <EnumeratedItem CodedValue="Beta Globulin/Total Protein" nciodm:ExtCodeID="C92294">
                    <nciodm:CDISCSynonym>Beta Globulin/Total Protein</nciodm:CDISCSynonym>
                    <nciodm:CDISCDefinition>A relative measurement (ratio or percentage) of beta fraction proteins to total proteins in a biological specimen.</nciodm:CDISCDefinition>
                    <nciodm:PreferredTerm>Beta Globulin to Total Protein Ratio Measurement</nciodm:PreferredTerm>
                </EnumeratedItem>
                <EnumeratedItem CodedValue="Beta-1 Globulin" nciodm:ExtCodeID="C119274">
                    <nciodm:CDISCSynonym>Beta-1 Globulin</nciodm:CDISCSynonym>
                    <nciodm:CDISCDefinition>A measurement of the beta-1 globulin in a biological specimen.</nciodm:CDISCDefinition>
                    <nciodm:PreferredTerm>Beta-1 Globulin Measurement</nciodm:PreferredTerm>
                </EnumeratedItem>
                <EnumeratedItem CodedValue="Beta-1 Globulin/Total Protein" nciodm:ExtCodeID="C119275">
                    <nciodm:CDISCSynonym>Beta-1 Globulin/Total Protein</nciodm:CDISCSynonym>
                    <nciodm:CDISCDefinition>A relative measurement (ratio or percentage) of beta-1-fraction proteins to total proteins in a biological specimen.</nciodm:CDISCDefinition>
                    <nciodm:PreferredTerm>Beta-1 Globulin to Total Protein Ratio Measurement</nciodm:PreferredTerm>
                </EnumeratedItem>
                <EnumeratedItem CodedValue="Beta-1B Glycoprotein" nciodm:ExtCodeID="C127607">
                    <nciodm:CDISCSynonym>Beta-1B Glycoprotein</nciodm:CDISCSynonym>
                    <nciodm:CDISCSynonym>HPX</nciodm:CDISCSynonym>
                    <nciodm:CDISCSynonym>Hemopexin</nciodm:CDISCSynonym>
                    <nciodm:CDISCDefinition>A measurement of the beta-1B glycoprotein in a biological specimen.</nciodm:CDISCDefinition>
                    <nciodm:PreferredTerm>Beta-1B Glycoprotein Measurement</nciodm:PreferredTerm>
                </EnumeratedItem>
                <EnumeratedItem CodedValue="Beta-2 Globulin" nciodm:ExtCodeID="C119276">
                    <nciodm:CDISCSynonym>Beta-2 Globulin</nciodm:CDISCSynonym>
                    <nciodm:CDISCDefinition>A measurement of the beta-2 globulin in a biological specimen.</nciodm:CDISCDefinition>
                    <nciodm:PreferredTerm>Beta-2 Globulin Measurement</nciodm:PreferredTerm>
                </EnumeratedItem>
                <EnumeratedItem CodedValue="Beta-2 Globulin/Total Protein" nciodm:ExtCodeID="C119277">
                    <nciodm:CDISCSynonym>Beta-2 Globulin/Total Protein</nciodm:CDISCSynonym>
                    <nciodm:CDISCDefinition>A relative measurement (ratio or percentage) of beta-2-fraction proteins to total proteins in a biological specimen.</nciodm:CDISCDefinition>
                    <nciodm:PreferredTerm>Beta-2 Globulin to Total Protein Ratio Measurement</nciodm:PreferredTerm>
                </EnumeratedItem>
                <EnumeratedItem CodedValue="Beta-2 Glycoprotein 1 IgG Antibody" nciodm:ExtCodeID="C103358">
                    <nciodm:CDISCSynonym>Beta-2 Glycoprotein 1 IgG Antibody</nciodm:CDISCSynonym>
                    <nciodm:CDISCDefinition>A measurement of the Beta-2 glycoprotein 1 IgG antibodies in a biological specimen.</nciodm:CDISCDefinition>
                    <nciodm:PreferredTerm>Beta-2 Glycoprotein 1 IgG Antibody Measurement</nciodm:PreferredTerm>
                </EnumeratedItem>
                <EnumeratedItem CodedValue="Beta-2 Glycoprotein 1 IgM Antibody" nciodm:ExtCodeID="C103359">
                    <nciodm:CDISCSynonym>Beta-2 Glycoprotein 1 IgM Antibody</nciodm:CDISCSynonym>
                    <nciodm:CDISCDefinition>A measurement of the Beta-2 glycoprotein 1 IgM antibodies in a biological specimen.</nciodm:CDISCDefinition>
                    <nciodm:PreferredTerm>Beta-2 Glycoprotein 1 IgM Antibody Measurement</nciodm:PreferredTerm>
                </EnumeratedItem>
                <EnumeratedItem CodedValue="Beta-2 Glycoprotein Antibody" nciodm:ExtCodeID="C81979">
                    <nciodm:CDISCSynonym>Beta-2 Glycoprotein Antibody</nciodm:CDISCSynonym>
                    <nciodm:CDISCDefinition>A measurement of the beta-2 glycoprotein antibody in a biological specimen.</nciodm:CDISCDefinition>
                    <nciodm:PreferredTerm>Beta-2 Glycoprotein Antibody Measurement</nciodm:PreferredTerm>
                </EnumeratedItem>
                <EnumeratedItem CodedValue="Beta-2 Microglobulin" nciodm:ExtCodeID="C81980">
                    <nciodm:CDISCSynonym>Beta-2 Microglobulin</nciodm:CDISCSynonym>
                    <nciodm:CDISCDefinition>A measurement of the beta-2 microglobulin in a biological specimen.</nciodm:CDISCDefinition>
                    <nciodm:PreferredTerm>Beta-2 Microglobulin Measurement</nciodm:PreferredTerm>
                </EnumeratedItem>
                <EnumeratedItem CodedValue="Beta-2 Microglobulin/Creatinine" nciodm:ExtCodeID="C127608">
                    <nciodm:CDISCSynonym>Beta-2 Microglobulin/Creatinine</nciodm:CDISCSynonym>
                    <nciodm:CDISCDefinition>A relative measurement (ratio) of the beta-2 microglobulin to creatinine in a biological specimen.</nciodm:CDISCDefinition>
                    <nciodm:PreferredTerm>Beta-2 Microglobulin to Creatinine Ratio Measurement</nciodm:PreferredTerm>
                </EnumeratedItem>
                <EnumeratedItem CodedValue="Beta-cell Function" nciodm:ExtCodeID="C123455">
                    <nciodm:CDISCSynonym>Beta-cell Function</nciodm:CDISCSynonym>
                    <nciodm:CDISCDefinition>A measurement of the beta cell function (insulin production and secretion) in a biological specimen.</nciodm:CDISCDefinition>
                    <nciodm:PreferredTerm>Beta-Cell Function Measurement</nciodm:PreferredTerm>
                </EnumeratedItem>
                <EnumeratedItem CodedValue="Beta-defensin 2" nciodm:ExtCodeID="C122102">
                    <nciodm:CDISCSynonym>Beta-defensin 2</nciodm:CDISCSynonym>
                    <nciodm:CDISCDefinition>A measurement of the beta-defensin 2 in a biological specimen.</nciodm:CDISCDefinition>
                    <nciodm:PreferredTerm>Beta-defensin 2 Measurement</nciodm:PreferredTerm>
                </EnumeratedItem>
                <EnumeratedItem CodedValue="Beta-Hydroxybutyrate" nciodm:ExtCodeID="C96568">
                    <nciodm:CDISCSynonym>3-Hydroxybutyrate</nciodm:CDISCSynonym>
                    <nciodm:CDISCSynonym>B-Hydroxybutyrate</nciodm:CDISCSynonym>
                    <nciodm:CDISCSynonym>Beta-Hydroxybutyrate</nciodm:CDISCSynonym>
                    <nciodm:CDISCDefinition>A measurement of the total Beta-hydroxybutyrate in a biological specimen.</nciodm:CDISCDefinition>
                    <nciodm:PreferredTerm>Beta-Hydroxybutyrate Measurement</nciodm:PreferredTerm>
                </EnumeratedItem>
                <EnumeratedItem CodedValue="Beta-Trace Protein" nciodm:ExtCodeID="C100426">
                    <nciodm:CDISCSynonym>Beta-Trace Protein</nciodm:CDISCSynonym>
                    <nciodm:CDISCDefinition>A measurement of the beta-trace protein in a biological specimen.</nciodm:CDISCDefinition>
                    <nciodm:PreferredTerm>Beta-Trace Protein Measurement</nciodm:PreferredTerm>
                </EnumeratedItem>
                <EnumeratedItem CodedValue="Bicarbonate" nciodm:ExtCodeID="C74667">
                    <nciodm:CDISCSynonym>Bicarbonate</nciodm:CDISCSynonym>
                    <nciodm:CDISCSynonym>HCO3</nciodm:CDISCSynonym>
                    <nciodm:CDISCDefinition>A measurement of the bicarbonate in a biological specimen.</nciodm:CDISCDefinition>
                    <nciodm:PreferredTerm>Bicarbonate Measurement</nciodm:PreferredTerm>
                </EnumeratedItem>
                <EnumeratedItem CodedValue="Bile Acid" nciodm:ExtCodeID="C74800">
                    <nciodm:CDISCSynonym>Bile Acid</nciodm:CDISCSynonym>
                    <nciodm:CDISCSynonym>Bile Acids</nciodm:CDISCSynonym>
                    <nciodm:CDISCSynonym>Bile Salt</nciodm:CDISCSynonym>
                    <nciodm:CDISCSynonym>Bile Salts</nciodm:CDISCSynonym>
                    <nciodm:CDISCDefinition>A measurement of the total bile acids in a biological specimen.</nciodm:CDISCDefinition>
                    <nciodm:PreferredTerm>Bile Acid Measurement</nciodm:PreferredTerm>
                </EnumeratedItem>
                <EnumeratedItem CodedValue="Bilirubin" nciodm:ExtCodeID="C38037">
                    <nciodm:CDISCSynonym>Bilirubin</nciodm:CDISCSynonym>
                    <nciodm:CDISCSynonym>Total Bilirubin</nciodm:CDISCSynonym>
                    <nciodm:CDISCDefinition>A measurement of the total bilirubin in a biological specimen.</nciodm:CDISCDefinition>
                    <nciodm:PreferredTerm>Total Bilirubin Measurement</nciodm:PreferredTerm>
                </EnumeratedItem>
                <EnumeratedItem CodedValue="Bilirubin Crystals" nciodm:ExtCodeID="C74668">
                    <nciodm:CDISCSynonym>Bilirubin Crystals</nciodm:CDISCSynonym>
                    <nciodm:CDISCDefinition>A measurement of the bilirubin crystals present in a biological specimen.</nciodm:CDISCDefinition>
                    <nciodm:PreferredTerm>Bilirubin Crystal Measurement</nciodm:PreferredTerm>
                </EnumeratedItem>
                <EnumeratedItem CodedValue="Bioavailable Testosterone" nciodm:ExtCodeID="C117860">
                    <nciodm:CDISCSynonym>Bioavailable Testosterone</nciodm:CDISCSynonym>
                    <nciodm:CDISCDefinition>A measurement of bioavailable testosterone in a biological specimen.</nciodm:CDISCDefinition>
                    <nciodm:PreferredTerm>Bioavailable Testosterone Measurement</nciodm:PreferredTerm>
                </EnumeratedItem>
                <EnumeratedItem CodedValue="Birch Pollen IgA" nciodm:ExtCodeID="C130073">
                    <nciodm:CDISCSynonym>Birch Pollen IgA</nciodm:CDISCSynonym>
                    <nciodm:CDISCDefinition>A measurement of the Betula pollen antigen IgA antibody in a biological specimen.</nciodm:CDISCDefinition>
                    <nciodm:PreferredTerm>Birch Pollen IgA Measurement</nciodm:PreferredTerm>
                </EnumeratedItem>
                <EnumeratedItem CodedValue="Birch Pollen IgE" nciodm:ExtCodeID="C130072">
                    <nciodm:CDISCSynonym>Birch Pollen IgE</nciodm:CDISCSynonym>
                    <nciodm:CDISCDefinition>A measurement of the Betula pollen antigen IgE antibody in a biological specimen.</nciodm:CDISCDefinition>
                    <nciodm:PreferredTerm>Birch Pollen IgE Measurement</nciodm:PreferredTerm>
                </EnumeratedItem>
                <EnumeratedItem CodedValue="Birch Pollen IgG" nciodm:ExtCodeID="C130074">
                    <nciodm:CDISCSynonym>Birch Pollen IgG</nciodm:CDISCSynonym>
                    <nciodm:CDISCDefinition>A measurement of the Betula pollen antigen IgG antibody in a biological specimen.</nciodm:CDISCDefinition>
                    <nciodm:PreferredTerm>Birch Pollen IgG Measurement</nciodm:PreferredTerm>
                </EnumeratedItem>
                <EnumeratedItem CodedValue="Birch Pollen IgG4" nciodm:ExtCodeID="C130075">
                    <nciodm:CDISCSynonym>Birch Pollen IgG4</nciodm:CDISCSynonym>
                    <nciodm:CDISCDefinition>A measurement of the Betula pollen antigen IgG4 antibody in a biological specimen.</nciodm:CDISCDefinition>
                    <nciodm:PreferredTerm>Birch Pollen IgG4 Measurement</nciodm:PreferredTerm>
                </EnumeratedItem>
                <EnumeratedItem CodedValue="Bite Cells" nciodm:ExtCodeID="C74700">
                    <nciodm:CDISCSynonym>Bite Cells</nciodm:CDISCSynonym>
                    <nciodm:CDISCDefinition>A measurement of the bite cells (erythrocytes with the appearance of a bite having been removed, due to oxidative hemolysis) in a biological specimen.</nciodm:CDISCDefinition>
                    <nciodm:PreferredTerm>Bite Cell Count</nciodm:PreferredTerm>
                </EnumeratedItem>
                <EnumeratedItem CodedValue="Bite Cells/Erythrocytes" nciodm:ExtCodeID="C74634">
                    <nciodm:CDISCSynonym>Bite Cells/Erythrocytes</nciodm:CDISCSynonym>
                    <nciodm:CDISCDefinition>A relative measurement (ratio or percentage) of bite cells (erythrocytes with the appearance of a bite having been removed, due to oxidative hemolysis) to all erythrocytes in a biological specimen.</nciodm:CDISCDefinition>
                    <nciodm:PreferredTerm>Bite Cell to Erythrocyte Ratio Measurement</nciodm:PreferredTerm>
                </EnumeratedItem>
                <EnumeratedItem CodedValue="BKV Viral Load" nciodm:ExtCodeID="C98710">
                    <nciodm:CDISCSynonym>BKV Viral Load</nciodm:CDISCSynonym>
                    <nciodm:CDISCDefinition>A measurement of the BK virus viral load in a biological specimen.</nciodm:CDISCDefinition>
                    <nciodm:PreferredTerm>BK Virus Viral Load Measurement</nciodm:PreferredTerm>
                </EnumeratedItem>
                <EnumeratedItem CodedValue="Blasts" nciodm:ExtCodeID="C74605">
                    <nciodm:CDISCSynonym>Blasts</nciodm:CDISCSynonym>
                    <nciodm:CDISCDefinition>A measurement of the blast cells in a biological specimen.</nciodm:CDISCDefinition>
                    <nciodm:PreferredTerm>Blast Count</nciodm:PreferredTerm>
                </EnumeratedItem>
                <EnumeratedItem CodedValue="Blasts/Leukocytes" nciodm:ExtCodeID="C64487">
                    <nciodm:CDISCSynonym>Blasts/Leukocytes</nciodm:CDISCSynonym>
                    <nciodm:CDISCDefinition>A relative measurement (ratio or percentage) of the blasts to leukocytes in a biological specimen.</nciodm:CDISCDefinition>
                    <nciodm:PreferredTerm>Blast to Leukocyte Ratio</nciodm:PreferredTerm>
                </EnumeratedItem>
                <EnumeratedItem CodedValue="Bleeding Time" nciodm:ExtCodeID="C89775">
                    <nciodm:CDISCSynonym>Bleeding Time</nciodm:CDISCSynonym>
                    <nciodm:CDISCSynonym>Clotting Time Homeostasis</nciodm:CDISCSynonym>
                    <nciodm:CDISCDefinition>A measurement of the time from the start to cessation of an induced bleed.</nciodm:CDISCDefinition>
                    <nciodm:PreferredTerm>Bleeding Time</nciodm:PreferredTerm>
                </EnumeratedItem>
                <EnumeratedItem CodedValue="Blister Cell" nciodm:ExtCodeID="C127609">
                    <nciodm:CDISCSynonym>Blister Cell</nciodm:CDISCSynonym>
                    <nciodm:CDISCDefinition>A measurement of the blister cells in a biological specimen.</nciodm:CDISCDefinition>
                    <nciodm:PreferredTerm>Blister Cell Count</nciodm:PreferredTerm>
                </EnumeratedItem>
                <EnumeratedItem CodedValue="Bone Specific Alkaline Phosphatase" nciodm:ExtCodeID="C92287">
                    <nciodm:CDISCSynonym>Bone Specific Alkaline Phosphatase</nciodm:CDISCSynonym>
                    <nciodm:CDISCDefinition>A measurement of the bone specific alkaline phosphatase isoform in a biological specimen.</nciodm:CDISCDefinition>
                    <nciodm:PreferredTerm>Bone Specific Alkaline Phosphatase Measurement</nciodm:PreferredTerm>
                </EnumeratedItem>
                <EnumeratedItem CodedValue="Borrelia burgdorferi Antibody" nciodm:ExtCodeID="C122098">
                    <nciodm:CDISCSynonym>Borrelia burgdorferi Antibody</nciodm:CDISCSynonym>
                    <nciodm:CDISCSynonym>Lyme Antibody</nciodm:CDISCSynonym>
                    <nciodm:CDISCDefinition>A measurement of the total Borrelia burgdorferi antibody in a biological specimen.</nciodm:CDISCDefinition>
                    <nciodm:PreferredTerm>Borrelia Burgdorferi Antibody Measurement</nciodm:PreferredTerm>
                </EnumeratedItem>
                <EnumeratedItem CodedValue="Borrelia burgdorferi IgA Antibody" nciodm:ExtCodeID="C122099">
                    <nciodm:CDISCSynonym>Borrelia burgdorferi IgA Antibody</nciodm:CDISCSynonym>
                    <nciodm:CDISCSynonym>Lyme IgA Antibody</nciodm:CDISCSynonym>
                    <nciodm:CDISCDefinition>A measurement of the Borrelia burgdorferi IgA antibody in a biological specimen.</nciodm:CDISCDefinition>
                    <nciodm:PreferredTerm>Borrelia Burgdorferi IgA Antibody Measurement</nciodm:PreferredTerm>
                </EnumeratedItem>
                <EnumeratedItem CodedValue="Borrelia burgdorferi IgG Antibody" nciodm:ExtCodeID="C122100">
                    <nciodm:CDISCSynonym>Borrelia burgdorferi IgG Antibody</nciodm:CDISCSynonym>
                    <nciodm:CDISCSynonym>Lyme IgG Antibody</nciodm:CDISCSynonym>
                    <nciodm:CDISCDefinition>A measurement of the Borrelia burgdorferi IgG antibody in a biological specimen.</nciodm:CDISCDefinition>
                    <nciodm:PreferredTerm>Borrelia Burgdorferi IgG Antibody Measurement</nciodm:PreferredTerm>
                </EnumeratedItem>
                <EnumeratedItem CodedValue="Borrelia burgdorferi IgM Antibody" nciodm:ExtCodeID="C122101">
                    <nciodm:CDISCSynonym>Borrelia burgdorferi IgM Antibody</nciodm:CDISCSynonym>
                    <nciodm:CDISCSynonym>Lyme IgM Antibody</nciodm:CDISCSynonym>
                    <nciodm:CDISCDefinition>A measurement of the Borrelia burgdorferi IgM antibody in a biological specimen.</nciodm:CDISCDefinition>
                    <nciodm:PreferredTerm>Borrelia Burgdorferi IgM Antibody Measurement</nciodm:PreferredTerm>
                </EnumeratedItem>
                <EnumeratedItem CodedValue="Brain Natriuretic Peptide" nciodm:ExtCodeID="C74735">
                    <nciodm:CDISCSynonym>B-Type Natriuretic Peptide</nciodm:CDISCSynonym>
                    <nciodm:CDISCSynonym>Brain Natriuretic Peptide</nciodm:CDISCSynonym>
                    <nciodm:CDISCDefinition>A measurement of the brain (B-type) natriuretic peptide in a biological specimen.</nciodm:CDISCDefinition>
                    <nciodm:PreferredTerm>Brain Natriuretic Peptide Measurement</nciodm:PreferredTerm>
                </EnumeratedItem>
                <EnumeratedItem CodedValue="Brain-Derived Neurotrophic Factor" nciodm:ExtCodeID="C82004">
                    <nciodm:CDISCSynonym>Brain-Derived Neurotrophic Factor</nciodm:CDISCSynonym>
                    <nciodm:CDISCDefinition>A measurement of the brain-derived neurotrophic factor in a biological specimen.</nciodm:CDISCDefinition>
                    <nciodm:PreferredTerm>Brain-Derived Neurotrophic Factor Measurement</nciodm:PreferredTerm>
                </EnumeratedItem>
                <EnumeratedItem CodedValue="Broad Casts" nciodm:ExtCodeID="C96588">
                    <nciodm:CDISCSynonym>Broad Casts</nciodm:CDISCSynonym>
                    <nciodm:CDISCDefinition>A measurement of the broad casts in a biological specimen.</nciodm:CDISCDefinition>
                    <nciodm:PreferredTerm>Broad Casts Measurement</nciodm:PreferredTerm>
                </EnumeratedItem>
                <EnumeratedItem CodedValue="Buprenorphine" nciodm:ExtCodeID="C75352">
                    <nciodm:CDISCSynonym>Buprenorphine</nciodm:CDISCSynonym>
                    <nciodm:CDISCDefinition>A measurement of the buprenorphine drug present in a biological specimen.</nciodm:CDISCDefinition>
                    <nciodm:PreferredTerm>Buprenorphine Measurement</nciodm:PreferredTerm>
                </EnumeratedItem>
                <EnumeratedItem CodedValue="Burr Cells" nciodm:ExtCodeID="C74701">
                    <nciodm:CDISCSynonym>Burr Cells</nciodm:CDISCSynonym>
                    <nciodm:CDISCSynonym>Keratocytes</nciodm:CDISCSynonym>
                    <nciodm:CDISCDefinition>A measurement of the Burr cells (erythrocytes characterized by the presence of small, blunt projections evenly distributed across the cell surface) in a biological specimen.</nciodm:CDISCDefinition>
                    <nciodm:PreferredTerm>Burr Cell Count</nciodm:PreferredTerm>
                </EnumeratedItem>
                <EnumeratedItem CodedValue="Butyrylcholinesterase" nciodm:ExtCodeID="C111142">
                    <nciodm:CDISCSynonym>Acylcholine Acylhydrolase</nciodm:CDISCSynonym>
                    <nciodm:CDISCSynonym>Butyrylcholinesterase</nciodm:CDISCSynonym>
                    <nciodm:CDISCSynonym>Non-neuronal Cholinesterase</nciodm:CDISCSynonym>
                    <nciodm:CDISCSynonym>Plasma Cholinesterase</nciodm:CDISCSynonym>
                    <nciodm:CDISCSynonym>Pseudocholinesterase</nciodm:CDISCSynonym>
                    <nciodm:CDISCDefinition>A measurement of the total butyrylcholinesterase in a biological specimen.</nciodm:CDISCDefinition>
                    <nciodm:PreferredTerm>Butyrylcholinesterase Measurement</nciodm:PreferredTerm>
                </EnumeratedItem>
                <EnumeratedItem CodedValue="C Reactive Protein" nciodm:ExtCodeID="C64548">
                    <nciodm:CDISCSynonym>C Reactive Protein</nciodm:CDISCSynonym>
                    <nciodm:CDISCDefinition>A measurement of the C reactive protein in a biological specimen.</nciodm:CDISCDefinition>
                    <nciodm:PreferredTerm>C-Reactive Protein Measurement</nciodm:PreferredTerm>
                </EnumeratedItem>
                <EnumeratedItem CodedValue="C-C Chemokine Receptor Type 5" nciodm:ExtCodeID="C122103">
                    <nciodm:CDISCSynonym>C-C Chemokine Receptor Type 5</nciodm:CDISCSynonym>
                    <nciodm:CDISCSynonym>CD195</nciodm:CDISCSynonym>
                    <nciodm:CDISCDefinition>A measurement of the CCR5, chemokine (C-C motif) receptor type 5, in a biological specimen.</nciodm:CDISCDefinition>
                    <nciodm:PreferredTerm>C-C Chemokine Receptor Type 5 Measurement</nciodm:PreferredTerm>
                </EnumeratedItem>
                <EnumeratedItem CodedValue="C-peptide" nciodm:ExtCodeID="C74736">
                    <nciodm:CDISCSynonym>C-peptide</nciodm:CDISCSynonym>
                    <nciodm:CDISCDefinition>A measurement of the C (connecting) peptide of insulin in a biological specimen.</nciodm:CDISCDefinition>
                    <nciodm:PreferredTerm>C-peptide Measurement</nciodm:PreferredTerm>
                </EnumeratedItem>
                <EnumeratedItem CodedValue="Cabot Rings" nciodm:ExtCodeID="C74702">
                    <nciodm:CDISCSynonym>Cabot Rings</nciodm:CDISCSynonym>
                    <nciodm:CDISCDefinition>A measurement of the Cabot rings (red-purple staining, threadlike, ring or figure 8 shaped filaments in an erythrocyte) in a biological specimen.</nciodm:CDISCDefinition>
                    <nciodm:PreferredTerm>Cabot Ring Count</nciodm:PreferredTerm>
                </EnumeratedItem>
                <EnumeratedItem CodedValue="Caffeine" nciodm:ExtCodeID="C75346">
                    <nciodm:CDISCSynonym>Caffeine</nciodm:CDISCSynonym>
                    <nciodm:CDISCDefinition>A measurement of the caffeine in a biological specimen.</nciodm:CDISCDefinition>
                    <nciodm:PreferredTerm>Caffeine Measurement</nciodm:PreferredTerm>
                </EnumeratedItem>
                <EnumeratedItem CodedValue="Calbindin" nciodm:ExtCodeID="C125942">
                    <nciodm:CDISCSynonym>Calbindin</nciodm:CDISCSynonym>
                    <nciodm:CDISCDefinition>A measurement of the total calbindin in a biological specimen.</nciodm:CDISCDefinition>
                    <nciodm:PreferredTerm>Calbindin Measurement</nciodm:PreferredTerm>
                </EnumeratedItem>
                <EnumeratedItem CodedValue="Calcitonin" nciodm:ExtCodeID="C74848">
                    <nciodm:CDISCSynonym>Calcitonin</nciodm:CDISCSynonym>
                    <nciodm:CDISCDefinition>A measurement of the calcitonin hormone in a biological specimen.</nciodm:CDISCDefinition>
                    <nciodm:PreferredTerm>Calcitonin Measurement</nciodm:PreferredTerm>
                </EnumeratedItem>
                <EnumeratedItem CodedValue="Calcitriol" nciodm:ExtCodeID="C74849">
                    <nciodm:CDISCSynonym>Calcitriol</nciodm:CDISCSynonym>
                    <nciodm:CDISCDefinition>A measurement of the calcitriol hormone in a biological specimen.</nciodm:CDISCDefinition>
                    <nciodm:PreferredTerm>Calcitriol Measurement</nciodm:PreferredTerm>
                </EnumeratedItem>
                <EnumeratedItem CodedValue="Calcium" nciodm:ExtCodeID="C64488">
                    <nciodm:CDISCSynonym>Calcium</nciodm:CDISCSynonym>
                    <nciodm:CDISCDefinition>A measurement of the calcium in a biological specimen.</nciodm:CDISCDefinition>
                    <nciodm:PreferredTerm>Calcium Measurement</nciodm:PreferredTerm>
                </EnumeratedItem>
                <EnumeratedItem CodedValue="Calcium - Phosphorus Product" nciodm:ExtCodeID="C103360">
                    <nciodm:CDISCSynonym>Calcium - Phosphorus Product</nciodm:CDISCSynonym>
                    <nciodm:CDISCDefinition>A measurement of the product of the calcium and phosphate measurements in a biological specimen.</nciodm:CDISCDefinition>
                    <nciodm:PreferredTerm>Calcium and Phosphorus Product Measurement</nciodm:PreferredTerm>
                </EnumeratedItem>
                <EnumeratedItem CodedValue="Calcium Carbonate Crystals" nciodm:ExtCodeID="C74669">
                    <nciodm:CDISCSynonym>Calcium Carbonate Crystals</nciodm:CDISCSynonym>
                    <nciodm:CDISCDefinition>A measurement of the calcium carbonate crystals present in a biological specimen.</nciodm:CDISCDefinition>
                    <nciodm:PreferredTerm>Calcium Carbonate Crystal Measurement</nciodm:PreferredTerm>
                </EnumeratedItem>
                <EnumeratedItem CodedValue="Calcium Clearance" nciodm:ExtCodeID="C96589">
                    <nciodm:CDISCSynonym>Calcium Clearance</nciodm:CDISCSynonym>
                    <nciodm:CDISCDefinition>A measurement of the volume of serum or plasma that would be cleared of calcium by excretion of urine for a specified unit of time (e.g. one minute).</nciodm:CDISCDefinition>
                    <nciodm:PreferredTerm>Calcium Clearance Measurement</nciodm:PreferredTerm>
                </EnumeratedItem>
                <EnumeratedItem CodedValue="Calcium Corrected" nciodm:ExtCodeID="C119272">
                    <nciodm:CDISCSynonym>Calcium Corrected</nciodm:CDISCSynonym>
                    <nciodm:CDISCDefinition>A measurement of calcium, which has been corrected for albumin, in a biological specimen.</nciodm:CDISCDefinition>
                    <nciodm:PreferredTerm>Calcium Corrected Measurement</nciodm:PreferredTerm>
                </EnumeratedItem>
                <EnumeratedItem CodedValue="Calcium Excretion Rate" nciodm:ExtCodeID="C117831">
                    <nciodm:CDISCSynonym>Calcium Excretion Rate</nciodm:CDISCSynonym>
                    <nciodm:CDISCDefinition>A measurement of the amount of calcium being excreted in urine over a defined period of time (e.g. one hour).</nciodm:CDISCDefinition>
                    <nciodm:PreferredTerm>Calcium Urine Excretion Rate</nciodm:PreferredTerm>
                </EnumeratedItem>
                <EnumeratedItem CodedValue="Calcium Oxalate Crystals" nciodm:ExtCodeID="C74670">
                    <nciodm:CDISCSynonym>Calcium Oxalate Crystals</nciodm:CDISCSynonym>
                    <nciodm:CDISCDefinition>A measurement of the calcium oxalate crystals present in a biological specimen.</nciodm:CDISCDefinition>
                    <nciodm:PreferredTerm>Calcium Oxalate Crystal Measurement</nciodm:PreferredTerm>
                </EnumeratedItem>
                <EnumeratedItem CodedValue="Calcium Phosphate Crystals" nciodm:ExtCodeID="C74671">
                    <nciodm:CDISCSynonym>Calcium Phosphate Crystals</nciodm:CDISCSynonym>
                    <nciodm:CDISCDefinition>A measurement of the calcium phosphate crystals present in a biological specimen.</nciodm:CDISCDefinition>
                    <nciodm:PreferredTerm>Calcium Phosphate Crystal Measurement</nciodm:PreferredTerm>
                </EnumeratedItem>
                <EnumeratedItem CodedValue="Calcium Sulfate Crystals" nciodm:ExtCodeID="C124340">
                    <nciodm:CDISCSynonym>Calcium Sulfate Crystals</nciodm:CDISCSynonym>
                    <nciodm:CDISCDefinition>A measurement of the calcium sulfate crystals present in a biological specimen.</nciodm:CDISCDefinition>
                    <nciodm:PreferredTerm>Calcium Sulfate Crystals Measurement</nciodm:PreferredTerm>
                </EnumeratedItem>
                <EnumeratedItem CodedValue="Calcium Sulphate" nciodm:ExtCodeID="C96590">
                    <nciodm:CDISCSynonym>Calcium Sulphate</nciodm:CDISCSynonym>
                    <nciodm:CDISCDefinition>A measurement of the calcium sulphate in a biological specimen.</nciodm:CDISCDefinition>
                    <nciodm:PreferredTerm>Calcium Sulphate Measurement</nciodm:PreferredTerm>
                </EnumeratedItem>
                <EnumeratedItem CodedValue="Calcium, Ionized" nciodm:ExtCodeID="C81948">
                    <nciodm:CDISCSynonym>Calcium, Ionized</nciodm:CDISCSynonym>
                    <nciodm:CDISCDefinition>A measurement of the ionized calcium in a biological specimen.</nciodm:CDISCDefinition>
                    <nciodm:PreferredTerm>Ionized Calcium Measurement</nciodm:PreferredTerm>
                </EnumeratedItem>
                <EnumeratedItem CodedValue="Calcium, Ionized pH Adjusted" nciodm:ExtCodeID="C125941">
                    <nciodm:CDISCSynonym>Calcium, Ionized pH Adjusted</nciodm:CDISCSynonym>
                    <nciodm:CDISCDefinition>A measurement of the pH adjusted ionized calcium in a biological specimen.</nciodm:CDISCDefinition>
                    <nciodm:PreferredTerm>Ionized pH Adjusted Calcium Measurement</nciodm:PreferredTerm>
                </EnumeratedItem>
                <EnumeratedItem CodedValue="Calcium/Creatinine" nciodm:ExtCodeID="C79439">
                    <nciodm:CDISCSynonym>Calcium/Creatinine</nciodm:CDISCSynonym>
                    <nciodm:CDISCDefinition>A relative measurement (ratio or percentage) of the calcium to creatinine in a biological specimen.</nciodm:CDISCDefinition>
                    <nciodm:PreferredTerm>Calcium to Creatinine Ratio Measurement</nciodm:PreferredTerm>
                </EnumeratedItem>
                <EnumeratedItem CodedValue="Calprotectin" nciodm:ExtCodeID="C82005">
                    <nciodm:CDISCSynonym>Calprotectin</nciodm:CDISCSynonym>
                    <nciodm:CDISCDefinition>A measurement of the calprotectin in a biological specimen.</nciodm:CDISCDefinition>
                    <nciodm:PreferredTerm>Calprotectin Measurement</nciodm:PreferredTerm>
                </EnumeratedItem>
                <EnumeratedItem CodedValue="Cancer Antigen 1" nciodm:ExtCodeID="C103361">
                    <nciodm:CDISCSynonym>Cancer Antigen 1</nciodm:CDISCSynonym>
                    <nciodm:CDISCDefinition>A measurement of the cancer antigen 1 in a biological specimen.</nciodm:CDISCDefinition>
                    <nciodm:PreferredTerm>Cancer Antigen 1 Measurement</nciodm:PreferredTerm>
                </EnumeratedItem>
                <EnumeratedItem CodedValue="Cancer Antigen 125" nciodm:ExtCodeID="C79089">
                    <nciodm:CDISCSynonym>Cancer Antigen 125</nciodm:CDISCSynonym>
                    <nciodm:CDISCDefinition>A measurement of the cancer antigen 125 in a biological specimen.</nciodm:CDISCDefinition>
                    <nciodm:PreferredTerm>CA-125 Measurement</nciodm:PreferredTerm>
                </EnumeratedItem>
                <EnumeratedItem CodedValue="Cancer Antigen 15-3" nciodm:ExtCodeID="C103362">
                    <nciodm:CDISCSynonym>Cancer Antigen 15-3</nciodm:CDISCSynonym>
                    <nciodm:CDISCDefinition>A measurement of the cancer antigen 15-3 in a biological specimen.</nciodm:CDISCDefinition>
                    <nciodm:PreferredTerm>Cancer Antigen 15-3 Measurement</nciodm:PreferredTerm>
                </EnumeratedItem>
                <EnumeratedItem CodedValue="Cancer Antigen 19-9" nciodm:ExtCodeID="C81982">
                    <nciodm:CDISCSynonym>Cancer Antigen 19-9</nciodm:CDISCSynonym>
                    <nciodm:CDISCDefinition>A measurement of the cancer antigen 19-9 in a biological specimen.</nciodm:CDISCDefinition>
                    <nciodm:PreferredTerm>Cancer Antigen 19-9 Measurement</nciodm:PreferredTerm>
                </EnumeratedItem>
                <EnumeratedItem CodedValue="Cancer Antigen 27-29" nciodm:ExtCodeID="C111143">
                    <nciodm:CDISCSynonym>Cancer Antigen 27-29</nciodm:CDISCSynonym>
                    <nciodm:CDISCDefinition>A measurement of the cancer antigen 27-29 in a biological specimen.</nciodm:CDISCDefinition>
                    <nciodm:PreferredTerm>Cancer Antigen 27-29 Measurement</nciodm:PreferredTerm>
                </EnumeratedItem>
                <EnumeratedItem CodedValue="Cancer Antigen 72-4" nciodm:ExtCodeID="C106505">
                    <nciodm:CDISCSynonym>CA 72-4</nciodm:CDISCSynonym>
                    <nciodm:CDISCSynonym>Cancer Antigen 72-4</nciodm:CDISCSynonym>
                    <nciodm:CDISCSynonym>Carbohydrate Antigen 72-4</nciodm:CDISCSynonym>
                    <nciodm:CDISCDefinition>A measurement of the cancer antigen 72-4 in a biological specimen.</nciodm:CDISCDefinition>
                    <nciodm:PreferredTerm>Cancer Antigen 72-4 Measurement</nciodm:PreferredTerm>
                </EnumeratedItem>
                <EnumeratedItem CodedValue="Cannabinoids" nciodm:ExtCodeID="C74689">
                    <nciodm:CDISCSynonym>Cannabinoids</nciodm:CDISCSynonym>
                    <nciodm:CDISCDefinition>A measurement of any cannabinoid class drug present in a biological specimen.</nciodm:CDISCDefinition>
                    <nciodm:PreferredTerm>Cannabinoid Drug Class Measurement</nciodm:PreferredTerm>
                </EnumeratedItem>
                <EnumeratedItem CodedValue="Carb-Deficient Transferrin/Transferrin" nciodm:ExtCodeID="C125943">
                    <nciodm:CDISCSynonym>Carb-Deficient Transferrin/Transferrin</nciodm:CDISCSynonym>
                    <nciodm:CDISCDefinition>A relative measurement (ratio or percentage) of the carbohydrate-deficient transferrin to total transferrin in a biological specimen.</nciodm:CDISCDefinition>
                    <nciodm:PreferredTerm>Carbohydrate-Deficient Transferrin to Transferrin Ratio Measurement</nciodm:PreferredTerm>
                </EnumeratedItem>
                <EnumeratedItem CodedValue="Carbohydrate-Deficient Transferrin" nciodm:ExtCodeID="C101016">
                    <nciodm:CDISCSynonym>Carbohydrate-Deficient Transferrin</nciodm:CDISCSynonym>
                    <nciodm:CDISCDefinition>A measurement of transferrin with a reduced number of carbohydrate moieties in a biological specimen.</nciodm:CDISCDefinition>
                    <nciodm:PreferredTerm>Carbohydrate-Deficient Transferrin Measurement</nciodm:PreferredTerm>
                </EnumeratedItem>
                <EnumeratedItem CodedValue="Carbon Dioxide" nciodm:ExtCodeID="C64545">
                    <nciodm:CDISCSynonym>Carbon Dioxide</nciodm:CDISCSynonym>
                    <nciodm:CDISCDefinition>A measurement of the carbon dioxide gas in a biological specimen.</nciodm:CDISCDefinition>
                    <nciodm:PreferredTerm>Carbon Dioxide Measurement</nciodm:PreferredTerm>
                </EnumeratedItem>
                <EnumeratedItem CodedValue="Carboxyhemoglobin" nciodm:ExtCodeID="C96591">
                    <nciodm:CDISCSynonym>Carboxyhemoglobin</nciodm:CDISCSynonym>
                    <nciodm:CDISCDefinition>A measurement of the carboxyhemoglobin, carbon monoxide-bound hemoglobin, in a biological specimen.</nciodm:CDISCDefinition>
                    <nciodm:PreferredTerm>Carboxyhemoglobin Measurement</nciodm:PreferredTerm>
                </EnumeratedItem>
                <EnumeratedItem CodedValue="Carcinoembryonic Antigen" nciodm:ExtCodeID="C81983">
                    <nciodm:CDISCSynonym>Carcinoembryonic Antigen</nciodm:CDISCSynonym>
                    <nciodm:CDISCDefinition>A measurement of the carcinoembryonic antigen in a biological specimen.</nciodm:CDISCDefinition>
                    <nciodm:PreferredTerm>Carcinoembryonic Antigen Measurement</nciodm:PreferredTerm>
                </EnumeratedItem>
                <EnumeratedItem CodedValue="Cardiolipin IgA Antibody" nciodm:ExtCodeID="C122112">
                    <nciodm:CDISCSynonym>Cardiolipin IgA Antibody</nciodm:CDISCSynonym>
                    <nciodm:CDISCDefinition>A measurement of the cardiolipin IgA antibody in a biological specimen.</nciodm:CDISCDefinition>
                    <nciodm:PreferredTerm>Cardiolipin IgA Antibody Measurement</nciodm:PreferredTerm>
                </EnumeratedItem>
                <EnumeratedItem CodedValue="Cardiolipin IgG Antibody" nciodm:ExtCodeID="C111144">
                    <nciodm:CDISCSynonym>Anti-Cardiolipin IgG Antibody</nciodm:CDISCSynonym>
                    <nciodm:CDISCSynonym>Cardiolipin IgG Antibody</nciodm:CDISCSynonym>
                    <nciodm:CDISCDefinition>A measurement of the cardiolipin IgG antibody in a biological specimen.</nciodm:CDISCDefinition>
                    <nciodm:PreferredTerm>Cardiolipin IgG Antibody Measurement</nciodm:PreferredTerm>
                </EnumeratedItem>
                <EnumeratedItem CodedValue="Cardiolipin IgM Antibody" nciodm:ExtCodeID="C103363">
                    <nciodm:CDISCSynonym>Cardiolipin IgM Antibody</nciodm:CDISCSynonym>
                    <nciodm:CDISCDefinition>A measurement of the cardiolipin IgM antibodies in a biological specimen.</nciodm:CDISCDefinition>
                    <nciodm:PreferredTerm>Cardiolipin IgM Antibody Measurement</nciodm:PreferredTerm>
                </EnumeratedItem>
                <EnumeratedItem CodedValue="Carnitine" nciodm:ExtCodeID="C74682">
                    <nciodm:CDISCSynonym>Carnitine</nciodm:CDISCSynonym>
                    <nciodm:CDISCDefinition>A measurement of the total carnitine in a biological specimen.</nciodm:CDISCDefinition>
                    <nciodm:PreferredTerm>Total Carnitine Measurement</nciodm:PreferredTerm>
                </EnumeratedItem>
                <EnumeratedItem CodedValue="Carnitine Acetyl Transferase" nciodm:ExtCodeID="C92288">
                    <nciodm:CDISCSynonym>Carnitine Acetyl Transferase</nciodm:CDISCSynonym>
                    <nciodm:CDISCDefinition>A measurement of the carnitine acetyl transferase in a biological specimen.</nciodm:CDISCDefinition>
                    <nciodm:PreferredTerm>Carnitine Acetyl Transferase Measurement</nciodm:PreferredTerm>
                </EnumeratedItem>
                <EnumeratedItem CodedValue="Carnitine, Free" nciodm:ExtCodeID="C74677">
                    <nciodm:CDISCSynonym>Carnitine, Free</nciodm:CDISCSynonym>
                    <nciodm:CDISCDefinition>A measurement of the free carnitine in a biological specimen.</nciodm:CDISCDefinition>
                    <nciodm:PreferredTerm>Free Carnitine Measurement</nciodm:PreferredTerm>
                </EnumeratedItem>
                <EnumeratedItem CodedValue="Cartilage Oligomeric Matrix Protein" nciodm:ExtCodeID="C111145">
                    <nciodm:CDISCSynonym>Cartilage Oligomeric Matrix Protein</nciodm:CDISCSynonym>
                    <nciodm:CDISCDefinition>A measurement of the cartilage oligomeric matrix protein in a biological specimen.</nciodm:CDISCDefinition>
                    <nciodm:PreferredTerm>Cartilage Oligomeric Matrix Protein Measurement</nciodm:PreferredTerm>
                </EnumeratedItem>
                <EnumeratedItem CodedValue="Casts" nciodm:ExtCodeID="C74763">
                    <nciodm:CDISCSynonym>Casts</nciodm:CDISCSynonym>
                    <nciodm:CDISCDefinition>A statement that indicates casts were looked for in a biological specimen.</nciodm:CDISCDefinition>
                    <nciodm:PreferredTerm>Cast Present Or Absent</nciodm:PreferredTerm>
                </EnumeratedItem>
                <EnumeratedItem CodedValue="Cat Dander Antigen IgA Antibody" nciodm:ExtCodeID="C130126">
                    <nciodm:CDISCSynonym>Cat Dander Antigen IgA Antibody</nciodm:CDISCSynonym>
                    <nciodm:CDISCDefinition>A measurement of the Felis catus dander antigen IgA antibody in a biological specimen.</nciodm:CDISCDefinition>
                    <nciodm:PreferredTerm>Cat Dander Antigen IgA Antibody Measurement</nciodm:PreferredTerm>
                </EnumeratedItem>
                <EnumeratedItem CodedValue="Cat Dander Antigen IgE Antibody" nciodm:ExtCodeID="C130124">
                    <nciodm:CDISCSynonym>Cat Dander Antigen IgE Antibody</nciodm:CDISCSynonym>
                    <nciodm:CDISCDefinition>A measurement of the Felis catus dander antigen IgE antibody in a biological specimen.</nciodm:CDISCDefinition>
                    <nciodm:PreferredTerm>Cat Dander Antigen IgE Antibody Measurement</nciodm:PreferredTerm>
                </EnumeratedItem>
                <EnumeratedItem CodedValue="Cat Dander Antigen IgG Antibody" nciodm:ExtCodeID="C130125">
                    <nciodm:CDISCSynonym>Cat Dander Antigen IgG Antibody</nciodm:CDISCSynonym>
                    <nciodm:CDISCDefinition>A measurement of the Felis catus dander antigen IgG antibody in a biological specimen.</nciodm:CDISCDefinition>
                    <nciodm:PreferredTerm>Cat Dander Antigen IgG Antibody Measurement</nciodm:PreferredTerm>
                </EnumeratedItem>
                <EnumeratedItem CodedValue="Cat Dander Antigen IgG4 Antibody" nciodm:ExtCodeID="C130127">
                    <nciodm:CDISCSynonym>Cat Dander Antigen IgG4 Antibody</nciodm:CDISCSynonym>
                    <nciodm:CDISCDefinition>A measurement of the Felis catus dander antigen IgG4 antibody in a biological specimen.</nciodm:CDISCDefinition>
                    <nciodm:PreferredTerm>Cat Dander Antigen IgG4 Antibody Measurement</nciodm:PreferredTerm>
                </EnumeratedItem>
                <EnumeratedItem CodedValue="Cathepsin Antibody" nciodm:ExtCodeID="C120634">
                    <nciodm:CDISCSynonym>Cathepsin Antibody</nciodm:CDISCSynonym>
                    <nciodm:CDISCDefinition>A measurement of the total cathepsin antibody in a biological specimen.</nciodm:CDISCDefinition>
                    <nciodm:PreferredTerm>Cathepsin Antibody Measurement</nciodm:PreferredTerm>
                </EnumeratedItem>
                <EnumeratedItem CodedValue="CD1" nciodm:ExtCodeID="C103364">
                    <nciodm:CDISCSynonym>CD1</nciodm:CDISCSynonym>
                    <nciodm:CDISCDefinition>A count of the CD1 expressing cells per unit of a biological specimen.</nciodm:CDISCDefinition>
                    <nciodm:PreferredTerm>CD1 Expressing Cell Measurement</nciodm:PreferredTerm>
                </EnumeratedItem>
                <EnumeratedItem CodedValue="CD10" nciodm:ExtCodeID="C111146">
                    <nciodm:CDISCSynonym>CD10</nciodm:CDISCSynonym>
                    <nciodm:CDISCDefinition>A measurement of the CD10 expressing cells per unit in a biological specimen.</nciodm:CDISCDefinition>
                    <nciodm:PreferredTerm>CD10 Expressing Cell Count</nciodm:PreferredTerm>
                </EnumeratedItem>
                <EnumeratedItem CodedValue="CD11A" nciodm:ExtCodeID="C105439">
                    <nciodm:CDISCSynonym>CD11A</nciodm:CDISCSynonym>
                    <nciodm:CDISCSynonym>CD11a</nciodm:CDISCSynonym>
                    <nciodm:CDISCDefinition>A count of the CD11a expressing cells per unit of a biological specimen.</nciodm:CDISCDefinition>
                    <nciodm:PreferredTerm>CD11A Expressing Cell Count</nciodm:PreferredTerm>
                </EnumeratedItem>
                <EnumeratedItem CodedValue="CD11B" nciodm:ExtCodeID="C105440">
                    <nciodm:CDISCSynonym>CD11B</nciodm:CDISCSynonym>
                    <nciodm:CDISCSynonym>CD11b</nciodm:CDISCSynonym>
                    <nciodm:CDISCSynonym>Complement Component 3 Receptor 3 Subunit</nciodm:CDISCSynonym>
                    <nciodm:CDISCSynonym>Complement Receptor Type 3 Alpha Subunit</nciodm:CDISCSynonym>
                    <nciodm:CDISCSynonym>ITGAM Protein</nciodm:CDISCSynonym>
                    <nciodm:CDISCSynonym>Integrin Alpha-M</nciodm:CDISCSynonym>
                    <nciodm:CDISCDefinition>A count of the CD11b expressing cells per unit of a biological specimen.</nciodm:CDISCDefinition>
                    <nciodm:PreferredTerm>CD11B Expressing Cell Count</nciodm:PreferredTerm>
                </EnumeratedItem>
                <EnumeratedItem CodedValue="CD13" nciodm:ExtCodeID="C111147">
                    <nciodm:CDISCSynonym>CD13</nciodm:CDISCSynonym>
                    <nciodm:CDISCDefinition>A measurement of the CD13 expressing cells per unit in a biological specimen.</nciodm:CDISCDefinition>
                    <nciodm:PreferredTerm>CD13 Expressing Cell Count</nciodm:PreferredTerm>
                </EnumeratedItem>
                <EnumeratedItem CodedValue="CD14" nciodm:ExtCodeID="C103365">
                    <nciodm:CDISCSynonym>CD14</nciodm:CDISCSynonym>
                    <nciodm:CDISCDefinition>A count of the CD14 expressing cells per unit of a biological specimen.</nciodm:CDISCDefinition>
                    <nciodm:PreferredTerm>CD14 Expressing Cell Measurement</nciodm:PreferredTerm>
                </EnumeratedItem>
                <EnumeratedItem CodedValue="CD161/Lymphocytes" nciodm:ExtCodeID="C122105">
                    <nciodm:CDISCSynonym>CD161/Lymphocytes</nciodm:CDISCSynonym>
                    <nciodm:CDISCDefinition>A relative measurement (ratio or percentage) of CD161 expressing cells to all lymphocytes in a biological specimen.</nciodm:CDISCDefinition>
                    <nciodm:PreferredTerm>CD161 to Lymphocyte Ratio Measurement</nciodm:PreferredTerm>
                </EnumeratedItem>
                <EnumeratedItem CodedValue="CD161a/Lymphocytes" nciodm:ExtCodeID="C122104">
                    <nciodm:CDISCSynonym>CD161a/Lymphocytes</nciodm:CDISCSynonym>
                    <nciodm:CDISCDefinition>A relative measurement (ratio or percentage) of CD161a expressing cells to all lymphocytes in a biological specimen.</nciodm:CDISCDefinition>
                    <nciodm:PreferredTerm>CD161a to Lymphocyte Ratio Measurement</nciodm:PreferredTerm>
                </EnumeratedItem>
                <EnumeratedItem CodedValue="CD19" nciodm:ExtCodeID="C103808">
                    <nciodm:CDISCSynonym>CD19</nciodm:CDISCSynonym>
                    <nciodm:CDISCDefinition>A count of the CD19 expressing cells per unit in a biological specimen.</nciodm:CDISCDefinition>
                    <nciodm:PreferredTerm>CD19 Expressing Cell Count</nciodm:PreferredTerm>
                </EnumeratedItem>
                <EnumeratedItem CodedValue="CD19/Lymphocytes" nciodm:ExtCodeID="C103812">
                    <nciodm:CDISCSynonym>CD19/Lymphocytes</nciodm:CDISCSynonym>
                    <nciodm:CDISCDefinition>A relative measurement (ratio or percentage) of CD19 expressing cells to all lymphocytes in a biological specimen.</nciodm:CDISCDefinition>
                    <nciodm:PreferredTerm>CD19 Cell to Lymphocyte Ratio Measurement</nciodm:PreferredTerm>
                </EnumeratedItem>
                <EnumeratedItem CodedValue="CD2" nciodm:ExtCodeID="C103366">
                    <nciodm:CDISCSynonym>CD2</nciodm:CDISCSynonym>
                    <nciodm:CDISCDefinition>A count of the CD2 expressing cells per unit of a biological specimen.</nciodm:CDISCDefinition>
                    <nciodm:PreferredTerm>CD2 Expressing Cell Measurement</nciodm:PreferredTerm>
                </EnumeratedItem>
                <EnumeratedItem CodedValue="CD2/Lymphocytes" nciodm:ExtCodeID="C103367">
                    <nciodm:CDISCSynonym>CD2/Lymphocytes</nciodm:CDISCSynonym>
                    <nciodm:CDISCDefinition>A relative measurement (ratio or percentage) of CD2 expressing cells to all lymphocytes in a biological specimen.</nciodm:CDISCDefinition>
                    <nciodm:PreferredTerm>CD2 Expressing Cell to Lymphocyte Ratio Measurement</nciodm:PreferredTerm>
                </EnumeratedItem>
                <EnumeratedItem CodedValue="CD20" nciodm:ExtCodeID="C103368">
                    <nciodm:CDISCSynonym>CD20</nciodm:CDISCSynonym>
                    <nciodm:CDISCDefinition>A count of the CD20 expressing cells per unit of a biological specimen.</nciodm:CDISCDefinition>
                    <nciodm:PreferredTerm>CD20 Expressing Cell Measurement</nciodm:PreferredTerm>
                </EnumeratedItem>
                <EnumeratedItem CodedValue="CD22" nciodm:ExtCodeID="C111148">
                    <nciodm:CDISCSynonym>CD22</nciodm:CDISCSynonym>
                    <nciodm:CDISCDefinition>A measurement of the CD22 expressing cells per unit in a biological specimen.</nciodm:CDISCDefinition>
                    <nciodm:PreferredTerm>CD22 Expressing Cell Count</nciodm:PreferredTerm>
                </EnumeratedItem>
                <EnumeratedItem CodedValue="CD23" nciodm:ExtCodeID="C111149">
                    <nciodm:CDISCSynonym>CD23</nciodm:CDISCSynonym>
                    <nciodm:CDISCDefinition>A measurement of the CD23 expressing cells per unit in a biological specimen.</nciodm:CDISCDefinition>
                    <nciodm:PreferredTerm>CD23 Expressing Cell Count</nciodm:PreferredTerm>
                </EnumeratedItem>
                <EnumeratedItem CodedValue="CD3" nciodm:ExtCodeID="C103809">
                    <nciodm:CDISCSynonym>CD3</nciodm:CDISCSynonym>
                    <nciodm:CDISCDefinition>A count of the CD3 expressing cells per unit in a biological specimen.</nciodm:CDISCDefinition>
                    <nciodm:PreferredTerm>CD3 Expressing Cell Count</nciodm:PreferredTerm>
                </EnumeratedItem>
                <EnumeratedItem CodedValue="CD3/Lymphocytes" nciodm:ExtCodeID="C103813">
                    <nciodm:CDISCSynonym>CD3/Lymphocytes</nciodm:CDISCSynonym>
                    <nciodm:CDISCDefinition>A relative measurement (ratio or percentage) of CD3 expressing cells to all lymphocytes in a biological specimen.</nciodm:CDISCDefinition>
                    <nciodm:PreferredTerm>CD3 Cell to Lymphocyte Ratio Measurement</nciodm:PreferredTerm>
                </EnumeratedItem>
                <EnumeratedItem CodedValue="CD33" nciodm:ExtCodeID="C111150">
                    <nciodm:CDISCSynonym>CD33</nciodm:CDISCSynonym>
                    <nciodm:CDISCDefinition>A measurement of the CD33 expressing cells per unit in a biological specimen.</nciodm:CDISCDefinition>
                    <nciodm:PreferredTerm>CD33 Expressing Cell Count</nciodm:PreferredTerm>
                </EnumeratedItem>
                <EnumeratedItem CodedValue="CD34" nciodm:ExtCodeID="C102260">
                    <nciodm:CDISCSynonym>CD34</nciodm:CDISCSynonym>
                    <nciodm:CDISCDefinition>A measurement of the CD34 expressing cells per unit in a biological specimen.</nciodm:CDISCDefinition>
                    <nciodm:PreferredTerm>CD34 Measurement</nciodm:PreferredTerm>
                </EnumeratedItem>
                <EnumeratedItem CodedValue="CD38" nciodm:ExtCodeID="C111151">
                    <nciodm:CDISCSynonym>CD38</nciodm:CDISCSynonym>
                    <nciodm:CDISCDefinition>A measurement of the CD38 expressing cells per unit in a biological specimen.</nciodm:CDISCDefinition>
                    <nciodm:PreferredTerm>CD38 Expressing Cell Count</nciodm:PreferredTerm>
                </EnumeratedItem>
                <EnumeratedItem CodedValue="CD4" nciodm:ExtCodeID="C103810">
                    <nciodm:CDISCSynonym>CD4</nciodm:CDISCSynonym>
                    <nciodm:CDISCDefinition>A count of the CD4 expressing cells per unit in a biological specimen.</nciodm:CDISCDefinition>
                    <nciodm:PreferredTerm>CD4 Expressing Cell Count</nciodm:PreferredTerm>
                </EnumeratedItem>
                <EnumeratedItem CodedValue="CD4/CD8" nciodm:ExtCodeID="C103814">
                    <nciodm:CDISCSynonym>CD4/CD8</nciodm:CDISCSynonym>
                    <nciodm:CDISCDefinition>A relative measurement (ratio or percentage) of CD4 expressing cells to the CD8 expressing cells in a biological specimen.</nciodm:CDISCDefinition>
                    <nciodm:PreferredTerm>CD4 Cell to CD8 Cell Ratio Measurement</nciodm:PreferredTerm>
                </EnumeratedItem>
                <EnumeratedItem CodedValue="CD4/Lymphocytes" nciodm:ExtCodeID="C103815">
                    <nciodm:CDISCSynonym>CD4/Lymphocytes</nciodm:CDISCSynonym>
                    <nciodm:CDISCDefinition>A relative measurement (ratio or percentage) of CD4 expressing cells to all lymphocytes in a biological specimen.</nciodm:CDISCDefinition>
                    <nciodm:PreferredTerm>CD4 Cell to Lymphocyte Ratio Measurement</nciodm:PreferredTerm>
                </EnumeratedItem>
                <EnumeratedItem CodedValue="CD40" nciodm:ExtCodeID="C82006">
                    <nciodm:CDISCSynonym>CD40</nciodm:CDISCSynonym>
                    <nciodm:CDISCDefinition>A count of the CD40 cells per unit in a biological specimen.</nciodm:CDISCDefinition>
                    <nciodm:PreferredTerm>CD40 Measurement</nciodm:PreferredTerm>
                </EnumeratedItem>
                <EnumeratedItem CodedValue="CD40 Ligand" nciodm:ExtCodeID="C82007">
                    <nciodm:CDISCSynonym>CD40 Ligand</nciodm:CDISCSynonym>
                    <nciodm:CDISCDefinition>A count of the CD40 ligand cells per unit in a biological specimen.</nciodm:CDISCDefinition>
                    <nciodm:PreferredTerm>CD40 Ligand Measurement</nciodm:PreferredTerm>
                </EnumeratedItem>
                <EnumeratedItem CodedValue="CD45/Lymphocytes" nciodm:ExtCodeID="C122106">
                    <nciodm:CDISCSynonym>CD45/Lymphocytes</nciodm:CDISCSynonym>
                    <nciodm:CDISCDefinition>A relative measurement (ratio or percentage) of CD45 expressing cells to all lymphocytes in a biological specimen.</nciodm:CDISCDefinition>
                    <nciodm:PreferredTerm>CD45 to Lymphocyte Ratio Measurement</nciodm:PreferredTerm>
                </EnumeratedItem>
                <EnumeratedItem CodedValue="CD45RA/Lymphocytes" nciodm:ExtCodeID="C122107">
                    <nciodm:CDISCSynonym>CD45RA/Lymphocytes</nciodm:CDISCSynonym>
                    <nciodm:CDISCDefinition>A relative measurement (ratio or percentage) of CD45RA expressing cells to all lymphocytes in a biological specimen.</nciodm:CDISCDefinition>
                    <nciodm:PreferredTerm>CD45RA to Lymphocyte Ratio Measurement</nciodm:PreferredTerm>
                </EnumeratedItem>
                <EnumeratedItem CodedValue="CD5" nciodm:ExtCodeID="C103369">
                    <nciodm:CDISCSynonym>CD5</nciodm:CDISCSynonym>
                    <nciodm:CDISCDefinition>A count of the CD5 expressing cells per unit of a biological specimen.</nciodm:CDISCDefinition>
                    <nciodm:PreferredTerm>CD5 Expressing Cell Measurement</nciodm:PreferredTerm>
                </EnumeratedItem>
                <EnumeratedItem CodedValue="CD56" nciodm:ExtCodeID="C103370">
                    <nciodm:CDISCSynonym>CD56</nciodm:CDISCSynonym>
                    <nciodm:CDISCDefinition>A count of the CD56 expressing cells per unit of a biological specimen.</nciodm:CDISCDefinition>
                    <nciodm:PreferredTerm>CD56 Expressing Cell Measurement</nciodm:PreferredTerm>
                </EnumeratedItem>
                <EnumeratedItem CodedValue="CD79A" nciodm:ExtCodeID="C111152">
                    <nciodm:CDISCSynonym>CD79A</nciodm:CDISCSynonym>
                    <nciodm:CDISCDefinition>A measurement of the CD79A expressing cells per unit in a biological specimen.</nciodm:CDISCDefinition>
                    <nciodm:PreferredTerm>CD79A Expressing Cell Count</nciodm:PreferredTerm>
                </EnumeratedItem>
                <EnumeratedItem CodedValue="CD8" nciodm:ExtCodeID="C103811">
                    <nciodm:CDISCSynonym>CD8</nciodm:CDISCSynonym>
                    <nciodm:CDISCDefinition>A count of the CD8 expressing cells per unit in a biological specimen.</nciodm:CDISCDefinition>
                    <nciodm:PreferredTerm>CD8 Expressing Cell Count</nciodm:PreferredTerm>
                </EnumeratedItem>
                <EnumeratedItem CodedValue="CD8/Lymphocytes" nciodm:ExtCodeID="C103816">
                    <nciodm:CDISCSynonym>CD8/Lymphocytes</nciodm:CDISCSynonym>
                    <nciodm:CDISCDefinition>A relative measurement (ratio or percentage) of CD8 expressing cells to all lymphocytes in a biological specimen.</nciodm:CDISCDefinition>
                    <nciodm:PreferredTerm>CD8 Cell to Lymphocyte Ratio Measurement</nciodm:PreferredTerm>
                </EnumeratedItem>
                <EnumeratedItem CodedValue="Cells" nciodm:ExtCodeID="C48938">
                    <nciodm:CDISCSynonym>Cells</nciodm:CDISCSynonym>
                    <nciodm:CDISCDefinition>A measurement of the total cells in a biological specimen.</nciodm:CDISCDefinition>
                    <nciodm:PreferredTerm>Cell Count</nciodm:PreferredTerm>
                </EnumeratedItem>
                <EnumeratedItem CodedValue="Cellular Casts" nciodm:ExtCodeID="C74764">
                    <nciodm:CDISCSynonym>Cellular Casts</nciodm:CDISCSynonym>
                    <nciodm:CDISCDefinition>A measurement of the cellular (white blood cell, red blood cell, epithelial and bacterial) casts present in a biological specimen.</nciodm:CDISCDefinition>
                    <nciodm:PreferredTerm>Cellular Cast Measurement</nciodm:PreferredTerm>
                </EnumeratedItem>
                <EnumeratedItem CodedValue="Cellularity" nciodm:ExtCodeID="C111153">
                    <nciodm:CDISCSynonym>Cellularity</nciodm:CDISCSynonym>
                    <nciodm:CDISCSynonym>Cellularity Grade</nciodm:CDISCSynonym>
                    <nciodm:CDISCDefinition>A measurement of the degree, quality or condition of cells in a biological specimen.</nciodm:CDISCDefinition>
                    <nciodm:PreferredTerm>Cellularity Measurement</nciodm:PreferredTerm>
                </EnumeratedItem>
                <EnumeratedItem CodedValue="Centromere B Antibodies" nciodm:ExtCodeID="C111154">
                    <nciodm:CDISCSynonym>Centromere B Antibodies</nciodm:CDISCSynonym>
                    <nciodm:CDISCDefinition>A measurement of centromere B antibodies in a biological specimen.</nciodm:CDISCDefinition>
                    <nciodm:PreferredTerm>Centromere B Antibody Measurement</nciodm:PreferredTerm>
                </EnumeratedItem>
                <EnumeratedItem CodedValue="Centromere IgG Antibody" nciodm:ExtCodeID="C122111">
                    <nciodm:CDISCSynonym>Centromere IgG Antibody</nciodm:CDISCSynonym>
                    <nciodm:CDISCSynonym>Centromere Protein B</nciodm:CDISCSynonym>
                    <nciodm:CDISCDefinition>A measurement of the centromere IgG antibody in a biological specimen.</nciodm:CDISCDefinition>
                    <nciodm:PreferredTerm>Centromere IgG Antibody Measurement</nciodm:PreferredTerm>
                </EnumeratedItem>
                <EnumeratedItem CodedValue="Ceruloplasmin" nciodm:ExtCodeID="C100432">
                    <nciodm:CDISCSynonym>Caeruloplasmin</nciodm:CDISCSynonym>
                    <nciodm:CDISCSynonym>Ceruloplasmin</nciodm:CDISCSynonym>
                    <nciodm:CDISCDefinition>A measurement of ceruloplasmin in a biological specimen.</nciodm:CDISCDefinition>
                    <nciodm:PreferredTerm>Ceruloplasmin Measurement</nciodm:PreferredTerm>
                </EnumeratedItem>
                <EnumeratedItem CodedValue="Chemokine (C-C Motif) Ligand 12" nciodm:ExtCodeID="C130156">
                    <nciodm:CDISCSynonym>Chemokine (C-C Motif) Ligand 12</nciodm:CDISCSynonym>
                    <nciodm:CDISCSynonym>Monocyte Chemotactic Protein 5</nciodm:CDISCSynonym>
                    <nciodm:CDISCDefinition>A measurement of the CCL12, chemokine (C-C motif) ligand 12, in a biological specimen.</nciodm:CDISCDefinition>
                    <nciodm:PreferredTerm>Chemokine (C-C Motif) Ligand 12 Measurement</nciodm:PreferredTerm>
                </EnumeratedItem>
                <EnumeratedItem CodedValue="Chemokine (C-C Motif) Ligand 17" nciodm:ExtCodeID="C112236">
                    <nciodm:CDISCSynonym>ABCD-2</nciodm:CDISCSynonym>
                    <nciodm:CDISCSynonym>Chemokine (C-C Motif) Ligand 17</nciodm:CDISCSynonym>
                    <nciodm:CDISCSynonym>SCYA17</nciodm:CDISCSynonym>
                    <nciodm:CDISCSynonym>TARC</nciodm:CDISCSynonym>
                    <nciodm:CDISCSynonym>Thymus and Activation Regulated Chemokine</nciodm:CDISCSynonym>
                    <nciodm:CDISCDefinition>A measurement of the CCL17, chemokine (C-C motif) ligand 17, in a biological specimen.</nciodm:CDISCDefinition>
                    <nciodm:PreferredTerm>Chemokine (C-C Motif) Ligand 17 Measurement</nciodm:PreferredTerm>
                </EnumeratedItem>
                <EnumeratedItem CodedValue="Chemokine (C-C Motif) Ligand 18" nciodm:ExtCodeID="C112237">
                    <nciodm:CDISCSynonym>AMAC-1</nciodm:CDISCSynonym>
                    <nciodm:CDISCSynonym>AMAC1</nciodm:CDISCSynonym>
                    <nciodm:CDISCSynonym>CKB7</nciodm:CDISCSynonym>
                    <nciodm:CDISCSynonym>Chemokine (C-C Motif) Ligand 18</nciodm:CDISCSynonym>
                    <nciodm:CDISCSynonym>DC-CK1</nciodm:CDISCSynonym>
                    <nciodm:CDISCSynonym>DCCK1</nciodm:CDISCSynonym>
                    <nciodm:CDISCSynonym>MIP4</nciodm:CDISCSynonym>
                    <nciodm:CDISCSynonym>Macrophage inflammatory protein-4</nciodm:CDISCSynonym>
                    <nciodm:CDISCSynonym>PARC</nciodm:CDISCSynonym>
                    <nciodm:CDISCSynonym>Pulmonary and Activation-Regulated Chemokine</nciodm:CDISCSynonym>
                    <nciodm:CDISCSynonym>SCYA18</nciodm:CDISCSynonym>
                    <nciodm:CDISCDefinition>A measurement of the CCL18, chemokine (C-C motif) ligand 18, in a biological specimen.</nciodm:CDISCDefinition>
                    <nciodm:PreferredTerm>Chemokine (C-C Motif) Ligand 18 Measurement</nciodm:PreferredTerm>
                </EnumeratedItem>
                <EnumeratedItem CodedValue="Chemokine (C-C Motif) Ligand 19" nciodm:ExtCodeID="C130157">
                    <nciodm:CDISCSynonym>Chemokine (C-C Motif) Ligand 19</nciodm:CDISCSynonym>
                    <nciodm:CDISCSynonym>MIP3B</nciodm:CDISCSynonym>
                    <nciodm:CDISCSynonym>Macrophage Inflammatory Protein 3 Beta</nciodm:CDISCSynonym>
                    <nciodm:CDISCDefinition>A measurement of the CCL19, chemokine (C-C motif) ligand 19, in a biological specimen.</nciodm:CDISCDefinition>
                    <nciodm:PreferredTerm>Chemokine (C-C Motif) Ligand 19 Measurement</nciodm:PreferredTerm>
                </EnumeratedItem>
                <EnumeratedItem CodedValue="Chemokine (C-C Motif) Ligand 7" nciodm:ExtCodeID="C130158">
                    <nciodm:CDISCSynonym>Chemokine (C-C Motif) Ligand 7</nciodm:CDISCSynonym>
                    <nciodm:CDISCSynonym>MCP3</nciodm:CDISCSynonym>
                    <nciodm:CDISCSynonym>Monocyte Chemotactic Protein 3</nciodm:CDISCSynonym>
                    <nciodm:CDISCDefinition>A measurement of the CCL7, chemokine (C-C motif) ligand 7, in a biological specimen.</nciodm:CDISCDefinition>
                    <nciodm:PreferredTerm>Chemokine (C-C Motif) Ligand 7 Measurement</nciodm:PreferredTerm>
                </EnumeratedItem>
                <EnumeratedItem CodedValue="Chemokine (C-X-C Motif) Ligand 1" nciodm:ExtCodeID="C128952">
                    <nciodm:CDISCSynonym>Chemokine (C-X-C Motif) Ligand 1</nciodm:CDISCSynonym>
                    <nciodm:CDISCSynonym>GRO Alpha</nciodm:CDISCSynonym>
                    <nciodm:CDISCSynonym>GRO/KC</nciodm:CDISCSynonym>
                    <nciodm:CDISCSynonym>Melanoma Growth Stimulating Activity, Alpha</nciodm:CDISCSynonym>
                    <nciodm:CDISCDefinition>A measurement of the CXCL1, chemokine (C-X-C motif) ligand 1, in a biological specimen.</nciodm:CDISCDefinition>
                    <nciodm:PreferredTerm>Chemokine (C-X-C Motif) Ligand 1 Measurement</nciodm:PreferredTerm>
                </EnumeratedItem>
                <EnumeratedItem CodedValue="Chemokine (C-X-C Motif) Ligand 10" nciodm:ExtCodeID="C112238">
                    <nciodm:CDISCSynonym>Chemokine (C-X-C Motif) Ligand 10</nciodm:CDISCSynonym>
                    <nciodm:CDISCSynonym>IP-10</nciodm:CDISCSynonym>
                    <nciodm:CDISCSynonym>Interferon Gamma-induced Protein 10</nciodm:CDISCSynonym>
                    <nciodm:CDISCSynonym>Small-inducible Cytokine B10</nciodm:CDISCSynonym>
                    <nciodm:CDISCDefinition>A measurement of the CXCL10, chemokine (C-X-C motif) ligand 10, in a biological specimen.</nciodm:CDISCDefinition>
                    <nciodm:PreferredTerm>Chemokine (C-X-C Motif) Ligand 10 Measurement</nciodm:PreferredTerm>
                </EnumeratedItem>
                <EnumeratedItem CodedValue="Chemokine (C-X-C Motif) Ligand 6" nciodm:ExtCodeID="C130159">
                    <nciodm:CDISCSynonym>Chemokine (C-X-C Motif) Ligand 6</nciodm:CDISCSynonym>
                    <nciodm:CDISCSynonym>GCP2</nciodm:CDISCSynonym>
                    <nciodm:CDISCSynonym>Granulocyte Chemotactic Protein 2</nciodm:CDISCSynonym>
                    <nciodm:CDISCDefinition>A measurement of the CXCL6, chemokine (C-X-C motif) ligand 6, in a biological specimen.</nciodm:CDISCDefinition>
                    <nciodm:PreferredTerm>Chemokine (C-X-C Motif) Ligand 6 Measurement</nciodm:PreferredTerm>
                </EnumeratedItem>
                <EnumeratedItem CodedValue="Chemokine (C-X-C Motif) Receptor 3" nciodm:ExtCodeID="C100431">
                    <nciodm:CDISCSynonym>CD183</nciodm:CDISCSynonym>
                    <nciodm:CDISCSynonym>CXCR3</nciodm:CDISCSynonym>
                    <nciodm:CDISCSynonym>Chemokine (C-X-C Motif) Receptor 3</nciodm:CDISCSynonym>
                    <nciodm:CDISCSynonym>GPR9</nciodm:CDISCSynonym>
                    <nciodm:CDISCDefinition>A measurement of the CXCR3, chemokine (C-X-C motif) receptor 3, in a biological specimen.</nciodm:CDISCDefinition>
                    <nciodm:PreferredTerm>Chemokine Receptor CXCR3 Measurement</nciodm:PreferredTerm>
                </EnumeratedItem>
                <EnumeratedItem CodedValue="Chlamydia pneumoniae IgA Antibody" nciodm:ExtCodeID="C92432">
                    <nciodm:CDISCSynonym>Chlamydia pneumoniae IgA Antibody</nciodm:CDISCSynonym>
                    <nciodm:CDISCDefinition>A measurement of the Chlamydia pneumoniae IgA antibody in a biological specimen.</nciodm:CDISCDefinition>
                    <nciodm:PreferredTerm>Chlamydia pneumoniae IgA Antibody Measurement</nciodm:PreferredTerm>
                </EnumeratedItem>
                <EnumeratedItem CodedValue="Chlamydia pneumoniae IgM Antibody" nciodm:ExtCodeID="C92433">
                    <nciodm:CDISCSynonym>Chlamydia pneumoniae IgM Antibody</nciodm:CDISCSynonym>
                    <nciodm:CDISCDefinition>A measurement of the Chlamydia pneumoniae IgM in a biological specimen.</nciodm:CDISCDefinition>
                    <nciodm:PreferredTerm>Chlamydia pneumoniae IgM Antibody Measurement</nciodm:PreferredTerm>
                </EnumeratedItem>
                <EnumeratedItem CodedValue="Chlamydia trachomatis IgA Antibody" nciodm:ExtCodeID="C100464">
                    <nciodm:CDISCSynonym>Chlamydia trachomatis IgA Antibody</nciodm:CDISCSynonym>
                    <nciodm:CDISCDefinition>A measurement of the Chlamydia trachomatis IgA antibody in a biological specimen.</nciodm:CDISCDefinition>
                    <nciodm:PreferredTerm>Chlamydia trachomatis IgA Antibody Measurement</nciodm:PreferredTerm>
                </EnumeratedItem>
                <EnumeratedItem CodedValue="Chlamydia trachomatis IgG Antibody" nciodm:ExtCodeID="C100466">
                    <nciodm:CDISCSynonym>Chlamydia trachomatis IgG Antibody</nciodm:CDISCSynonym>
                    <nciodm:CDISCDefinition>A measurement of the Chlamydia trachomatis IgG antibody in a biological specimen.</nciodm:CDISCDefinition>
                    <nciodm:PreferredTerm>Chlamydia trachomatis IgG Antibody Measurement</nciodm:PreferredTerm>
                </EnumeratedItem>
                <EnumeratedItem CodedValue="Chlamydia trachomatis IgM Antibody" nciodm:ExtCodeID="C100465">
                    <nciodm:CDISCSynonym>Chlamydia trachomatis IgM Antibody</nciodm:CDISCSynonym>
                    <nciodm:CDISCDefinition>A measurement of the Chlamydia trachomatis IgM antibody in a biological specimen.</nciodm:CDISCDefinition>
                    <nciodm:PreferredTerm>Chlamydia trachomatis IgM Antibody Measurement</nciodm:PreferredTerm>
                </EnumeratedItem>
                <EnumeratedItem CodedValue="Chloride" nciodm:ExtCodeID="C64495">
                    <nciodm:CDISCSynonym>Chloride</nciodm:CDISCSynonym>
                    <nciodm:CDISCDefinition>A measurement of the chloride in a biological specimen.</nciodm:CDISCDefinition>
                    <nciodm:PreferredTerm>Chloride Measurement</nciodm:PreferredTerm>
                </EnumeratedItem>
                <EnumeratedItem CodedValue="Chloride Clearance" nciodm:ExtCodeID="C106509">
                    <nciodm:CDISCSynonym>Chloride Clearance</nciodm:CDISCSynonym>
                    <nciodm:CDISCDefinition>A measurement of the volume of serum or plasma that would be cleared of chloride by excretion of urine for a specified unit of time (e.g. one minute).</nciodm:CDISCDefinition>
                    <nciodm:PreferredTerm>Chloride Clearance Measurement</nciodm:PreferredTerm>
                </EnumeratedItem>
                <EnumeratedItem CodedValue="Chloride Excretion Rate" nciodm:ExtCodeID="C117832">
                    <nciodm:CDISCSynonym>Chloride Excretion Rate</nciodm:CDISCSynonym>
                    <nciodm:CDISCDefinition>A measurement of the amount of chloride being excreted in urine over a defined period of time (e.g. one hour).</nciodm:CDISCDefinition>
                    <nciodm:PreferredTerm>Chloride Urine Excretion Rate</nciodm:PreferredTerm>
                </EnumeratedItem>
                <EnumeratedItem CodedValue="Chloride/Creatinine" nciodm:ExtCodeID="C79440">
                    <nciodm:CDISCSynonym>Chloride/Creatinine</nciodm:CDISCSynonym>
                    <nciodm:CDISCDefinition>A relative measurement (ratio or percentage) of the chloride to creatinine in a biological specimen.</nciodm:CDISCDefinition>
                    <nciodm:PreferredTerm>Chloride to Creatinine Ratio Measurement</nciodm:PreferredTerm>
                </EnumeratedItem>
                <EnumeratedItem CodedValue="Cholecystokinin" nciodm:ExtCodeID="C74850">
                    <nciodm:CDISCSynonym>Cholecystokinin</nciodm:CDISCSynonym>
                    <nciodm:CDISCSynonym>Pancreozymin</nciodm:CDISCSynonym>
                    <nciodm:CDISCDefinition>A measurement of the cholecystokinin hormone in a biological specimen.</nciodm:CDISCDefinition>
                    <nciodm:PreferredTerm>Cholecystokinin Measurement</nciodm:PreferredTerm>
                </EnumeratedItem>
                <EnumeratedItem CodedValue="Cholera Toxin B Subunit IgG Antibody" nciodm:ExtCodeID="C116194">
                    <nciodm:CDISCSynonym>Cholera Toxin B Subunit IgG Antibody</nciodm:CDISCSynonym>
                    <nciodm:CDISCDefinition>A measurement of the cholera toxin B subunit IgG antibody in a biological specimen.</nciodm:CDISCDefinition>
                    <nciodm:PreferredTerm>Cholera Toxin B Subunit IgG Antibody Measurement</nciodm:PreferredTerm>
                </EnumeratedItem>
                <EnumeratedItem CodedValue="Cholesterol" nciodm:ExtCodeID="C105586">
                    <nciodm:CDISCSynonym>Cholesterol</nciodm:CDISCSynonym>
                    <nciodm:CDISCSynonym>Total Cholesterol</nciodm:CDISCSynonym>
                    <nciodm:CDISCDefinition>A measurement of the cholesterol in a biological specimen.</nciodm:CDISCDefinition>
                    <nciodm:PreferredTerm>Cholesterol Measurement</nciodm:PreferredTerm>
                </EnumeratedItem>
                <EnumeratedItem CodedValue="Cholesterol Crystals" nciodm:ExtCodeID="C74672">
                    <nciodm:CDISCSynonym>Cholesterol Crystals</nciodm:CDISCSynonym>
                    <nciodm:CDISCDefinition>A measurement of the cholesterol crystals present in a biological specimen.</nciodm:CDISCDefinition>
                    <nciodm:PreferredTerm>Cholesterol Crystal Measurement</nciodm:PreferredTerm>
                </EnumeratedItem>
                <EnumeratedItem CodedValue="Cholesterol/HDL-Cholesterol" nciodm:ExtCodeID="C80171">
                    <nciodm:CDISCSynonym>Cholesterol/HDL-Cholesterol</nciodm:CDISCSynonym>
                    <nciodm:CDISCDefinition>A relative measurement (ratio or percentage) of total cholesterol to high-density lipoprotein cholesterol (HDL-C) in a biological specimen.</nciodm:CDISCDefinition>
                    <nciodm:PreferredTerm>Cholesterol to HDL-Cholesterol Ratio Measurement</nciodm:PreferredTerm>
                </EnumeratedItem>
                <EnumeratedItem CodedValue="Cholesteryl Ester Transfer Protein" nciodm:ExtCodeID="C120632">
                    <nciodm:CDISCSynonym>Cholesteryl Ester Transfer Protein</nciodm:CDISCSynonym>
                    <nciodm:CDISCDefinition>A measurement of the cholesteryl ester transfer protein in a biological specimen.</nciodm:CDISCDefinition>
                    <nciodm:PreferredTerm>Cholesteryl Ester Transfer Protein Measurement</nciodm:PreferredTerm>
                </EnumeratedItem>
                <EnumeratedItem CodedValue="Cholesteryl Ester Transfer Protein Act" nciodm:ExtCodeID="C103380">
                    <nciodm:CDISCSynonym>Cholesteryl Ester Transfer Protein Act</nciodm:CDISCSynonym>
                    <nciodm:CDISCDefinition>A measurement of the biological activity of cholesteryl ester transfer protein in a biological specimen.</nciodm:CDISCDefinition>
                    <nciodm:PreferredTerm>Cholesteryl Ester Transfer Protein Activity Measurement</nciodm:PreferredTerm>
                </EnumeratedItem>
                <EnumeratedItem CodedValue="Cholinesterase" nciodm:ExtCodeID="C92289">
                    <nciodm:CDISCSynonym>Cholinesterase</nciodm:CDISCSynonym>
                    <nciodm:CDISCDefinition>A measurement of the cholinesterase in a biological specimen.</nciodm:CDISCDefinition>
                    <nciodm:PreferredTerm>Cholinesterase Measurement</nciodm:PreferredTerm>
                </EnumeratedItem>
                <EnumeratedItem CodedValue="Choriogonadotropin Beta" nciodm:ExtCodeID="C64851">
                    <nciodm:CDISCSynonym>Choriogonadotropin Beta</nciodm:CDISCSynonym>
                    <nciodm:CDISCSynonym>Pregnancy Test</nciodm:CDISCSynonym>
                    <nciodm:CDISCDefinition>A measurement of the Choriogonadotropin Beta in a biological specimen.</nciodm:CDISCDefinition>
                    <nciodm:PreferredTerm>Choriogonadotropin Beta Measurement</nciodm:PreferredTerm>
                </EnumeratedItem>
                <EnumeratedItem CodedValue="Chromogranin A" nciodm:ExtCodeID="C122108">
                    <nciodm:CDISCSynonym>Chromogranin A</nciodm:CDISCSynonym>
                    <nciodm:CDISCDefinition>A measurement of the chromogranin A in a biological specimen.</nciodm:CDISCDefinition>
                    <nciodm:PreferredTerm>Chromogranin A Measurement</nciodm:PreferredTerm>
                </EnumeratedItem>
                <EnumeratedItem CodedValue="Chylomicrons" nciodm:ExtCodeID="C120633">
                    <nciodm:CDISCSynonym>Chylomicrons</nciodm:CDISCSynonym>
                    <nciodm:CDISCDefinition>A measurement of the chylomicrons in a biological specimen.</nciodm:CDISCDefinition>
                    <nciodm:PreferredTerm>Chylomicrons Measurement</nciodm:PreferredTerm>
                </EnumeratedItem>
                <EnumeratedItem CodedValue="Chymotrypsin" nciodm:ExtCodeID="C111159">
                    <nciodm:CDISCSynonym>Chymotrypsin</nciodm:CDISCSynonym>
                    <nciodm:CDISCDefinition>A measurement of the total chymotrypsin in a biological specimen.</nciodm:CDISCDefinition>
                    <nciodm:PreferredTerm>Chymotrypsin Measurement</nciodm:PreferredTerm>
                </EnumeratedItem>
                <EnumeratedItem CodedValue="Circulating Endothelial Cells" nciodm:ExtCodeID="C96592">
                    <nciodm:CDISCSynonym>Circulating Endothelial Cells</nciodm:CDISCSynonym>
                    <nciodm:CDISCDefinition>A measurement of the circulating endothelial cells in a biological specimen.</nciodm:CDISCDefinition>
                    <nciodm:PreferredTerm>Circulating Endothelial Cell Count</nciodm:PreferredTerm>
                </EnumeratedItem>
                <EnumeratedItem CodedValue="Circulating Immune Complexes" nciodm:ExtCodeID="C127611">
                    <nciodm:CDISCSynonym>Circulating Immune Complexes</nciodm:CDISCSynonym>
                    <nciodm:CDISCDefinition>A measurement of the circulating immune complexes in a biological specimen.</nciodm:CDISCDefinition>
                    <nciodm:PreferredTerm>Circulating Immune Complex Measurement</nciodm:PreferredTerm>
                </EnumeratedItem>
                <EnumeratedItem CodedValue="Circulating Tumor Cells" nciodm:ExtCodeID="C96593">
                    <nciodm:CDISCSynonym>Circulating Tumor Cells</nciodm:CDISCSynonym>
                    <nciodm:CDISCDefinition>A measurement of the circulating tumor cells in a biological specimen.</nciodm:CDISCDefinition>
                    <nciodm:PreferredTerm>Circulating Tumor Cell Count</nciodm:PreferredTerm>
                </EnumeratedItem>
                <EnumeratedItem CodedValue="Citrate" nciodm:ExtCodeID="C92248">
                    <nciodm:CDISCSynonym>Citrate</nciodm:CDISCSynonym>
                    <nciodm:CDISCSynonym>Citric Acid</nciodm:CDISCSynonym>
                    <nciodm:CDISCDefinition>A measurement of the citrate in a biological specimen.</nciodm:CDISCDefinition>
                    <nciodm:PreferredTerm>Citrate Measurement</nciodm:PreferredTerm>
                </EnumeratedItem>
                <EnumeratedItem CodedValue="Citrate/Creatinine" nciodm:ExtCodeID="C122110">
                    <nciodm:CDISCSynonym>Citrate/Creatinine</nciodm:CDISCSynonym>
                    <nciodm:CDISCSynonym>Citric Acid/Creatinine</nciodm:CDISCSynonym>
                    <nciodm:CDISCDefinition>A relative measurement (ratio or percentage) of the citrate to creatinine in a biological specimen.</nciodm:CDISCDefinition>
                    <nciodm:PreferredTerm>Citrate to Creatinine Ratio Measurement</nciodm:PreferredTerm>
                </EnumeratedItem>
                <EnumeratedItem CodedValue="Citrulline" nciodm:ExtCodeID="C122109">
                    <nciodm:CDISCSynonym>Citrulline</nciodm:CDISCSynonym>
                    <nciodm:CDISCDefinition>A measurement of the citrulline in a biological specimen.</nciodm:CDISCDefinition>
                    <nciodm:PreferredTerm>Citrulline Measurement</nciodm:PreferredTerm>
                </EnumeratedItem>
                <EnumeratedItem CodedValue="Clarity" nciodm:ExtCodeID="C96594">
                    <nciodm:CDISCSynonym>Clarity</nciodm:CDISCSynonym>
                    <nciodm:CDISCDefinition>A measurement of the transparency of a biological specimen.</nciodm:CDISCDefinition>
                    <nciodm:PreferredTerm>Clarity Measurement</nciodm:PreferredTerm>
                </EnumeratedItem>
                <EnumeratedItem CodedValue="Clostridium difficile Toxin" nciodm:ExtCodeID="C103381">
                    <nciodm:CDISCSynonym>Clostridium difficile Toxin</nciodm:CDISCSynonym>
                    <nciodm:CDISCDefinition>A measurement of the Clostridium difficile toxin in a biological specimen.</nciodm:CDISCDefinition>
                    <nciodm:PreferredTerm>Clostridium difficile Toxin Measurement</nciodm:PreferredTerm>
                </EnumeratedItem>
                <EnumeratedItem CodedValue="Clostridium tetani IgG Antibody" nciodm:ExtCodeID="C103382">
                    <nciodm:CDISCSynonym>Clostridium tetani IgG Antibody</nciodm:CDISCSynonym>
                    <nciodm:CDISCDefinition>A measurement of the Clostridium tetani IgG antibody in a biological specimen.</nciodm:CDISCDefinition>
                    <nciodm:PreferredTerm>Clostridium tetani IgG Antibody Measurement</nciodm:PreferredTerm>
                </EnumeratedItem>
                <EnumeratedItem CodedValue="Clue Cells" nciodm:ExtCodeID="C102261">
                    <nciodm:CDISCSynonym>Clue Cells</nciodm:CDISCSynonym>
                    <nciodm:CDISCDefinition>A measurement of the clue cells in a biological specimen.</nciodm:CDISCDefinition>
                    <nciodm:PreferredTerm>Clue Cell Count</nciodm:PreferredTerm>
                </EnumeratedItem>
                <EnumeratedItem CodedValue="CMV Viral Load" nciodm:ExtCodeID="C98716">
                    <nciodm:CDISCSynonym>CMV Viral Load</nciodm:CDISCSynonym>
                    <nciodm:CDISCDefinition>A measurement of the cytomegalovirus viral load in a biological specimen.</nciodm:CDISCDefinition>
                    <nciodm:PreferredTerm>Cytomegalovirus Viral Load Measurement</nciodm:PreferredTerm>
                </EnumeratedItem>
                <EnumeratedItem CodedValue="Coagulation Index" nciodm:ExtCodeID="C112239">
                    <nciodm:CDISCSynonym>CI</nciodm:CDISCSynonym>
                    <nciodm:CDISCSynonym>Coagulation Index</nciodm:CDISCSynonym>
                    <nciodm:CDISCDefinition>A measurement of the efficiency of coagulation of a biological specimen. This is calculated by a mathematical formula that takes into account the R value, K value, angle and maximum amplitude of clot formation.</nciodm:CDISCDefinition>
                    <nciodm:PreferredTerm>Coagulation Index Measurement</nciodm:PreferredTerm>
                </EnumeratedItem>
                <EnumeratedItem CodedValue="Cocaine" nciodm:ExtCodeID="C74690">
                    <nciodm:CDISCSynonym>Cocaine</nciodm:CDISCSynonym>
                    <nciodm:CDISCDefinition>A measurement of the cocaine present in a biological specimen.</nciodm:CDISCDefinition>
                    <nciodm:PreferredTerm>Cocaine Measurement</nciodm:PreferredTerm>
                </EnumeratedItem>
                <EnumeratedItem CodedValue="Coccidioides Antibody" nciodm:ExtCodeID="C111160">
                    <nciodm:CDISCSynonym>Coccidioides Antibody</nciodm:CDISCSynonym>
                    <nciodm:CDISCDefinition>A measurement of the coccidioides antibody in a biological specimen.</nciodm:CDISCDefinition>
                    <nciodm:PreferredTerm>Coccidioides Antibody Measurement</nciodm:PreferredTerm>
                </EnumeratedItem>
                <EnumeratedItem CodedValue="Codeine" nciodm:ExtCodeID="C74877">
                    <nciodm:CDISCSynonym>Codeine</nciodm:CDISCSynonym>
                    <nciodm:CDISCDefinition>A measurement of the codeine present in a biological specimen.</nciodm:CDISCDefinition>
                    <nciodm:PreferredTerm>Codeine Measurement</nciodm:PreferredTerm>
                </EnumeratedItem>
                <EnumeratedItem CodedValue="Collagen Type IV" nciodm:ExtCodeID="C103383">
                    <nciodm:CDISCSynonym>Collagen Type IV</nciodm:CDISCSynonym>
                    <nciodm:CDISCDefinition>A measurement of the collagen type IV in a biological specimen.</nciodm:CDISCDefinition>
                    <nciodm:PreferredTerm>Collagen Type IV Measurement</nciodm:PreferredTerm>
                </EnumeratedItem>
                <EnumeratedItem CodedValue="Color" nciodm:ExtCodeID="C64546">
                    <nciodm:CDISCSynonym>Color</nciodm:CDISCSynonym>
                    <nciodm:CDISCDefinition>A measurement of the color of a biological specimen.</nciodm:CDISCDefinition>
                    <nciodm:PreferredTerm>Color Assessment</nciodm:PreferredTerm>
                </EnumeratedItem>
                <EnumeratedItem CodedValue="Complement Bb" nciodm:ExtCodeID="C80172">
                    <nciodm:CDISCSynonym>Bb Fragment of Complement Factor B</nciodm:CDISCSynonym>
                    <nciodm:CDISCSynonym>Bb Fragment of Factor B</nciodm:CDISCSynonym>
                    <nciodm:CDISCSynonym>Complement Bb</nciodm:CDISCSynonym>
                    <nciodm:CDISCDefinition>A measurement of the Bb fragment of complement factor B in a biological specimen.</nciodm:CDISCDefinition>
                    <nciodm:PreferredTerm>Complement Bb Measurement</nciodm:PreferredTerm>
                </EnumeratedItem>
                <EnumeratedItem CodedValue="Complement C1q Antibody" nciodm:ExtCodeID="C80173">
                    <nciodm:CDISCSynonym>Complement C1q Antibody</nciodm:CDISCSynonym>
                    <nciodm:CDISCDefinition>A measurement of the complement C1q antibody in a biological specimen.</nciodm:CDISCDefinition>
                    <nciodm:PreferredTerm>Complement C1q Antibody Measurement</nciodm:PreferredTerm>
                </EnumeratedItem>
                <EnumeratedItem CodedValue="Complement C3" nciodm:ExtCodeID="C80174">
                    <nciodm:CDISCSynonym>Complement C3</nciodm:CDISCSynonym>
                    <nciodm:CDISCDefinition>A measurement of the complement C3 in a biological specimen.</nciodm:CDISCDefinition>
                    <nciodm:PreferredTerm>Complement C3 Measurement</nciodm:PreferredTerm>
                </EnumeratedItem>
                <EnumeratedItem CodedValue="Complement C3a" nciodm:ExtCodeID="C80175">
                    <nciodm:CDISCSynonym>ASP, Complement C3 DesArg, Acetylation-stimulating Protein</nciodm:CDISCSynonym>
                    <nciodm:CDISCSynonym>Complement C3a</nciodm:CDISCSynonym>
                    <nciodm:CDISCDefinition>A measurement of the complement C3a in a biological specimen.</nciodm:CDISCDefinition>
                    <nciodm:PreferredTerm>Complement C3a Measurement</nciodm:PreferredTerm>
                </EnumeratedItem>
                <EnumeratedItem CodedValue="Complement C3b" nciodm:ExtCodeID="C80176">
                    <nciodm:CDISCSynonym>Complement C3b</nciodm:CDISCSynonym>
                    <nciodm:CDISCDefinition>A measurement of the complement C3b in a biological specimen.</nciodm:CDISCDefinition>
                    <nciodm:PreferredTerm>Complement C3b Measurement</nciodm:PreferredTerm>
                </EnumeratedItem>
                <EnumeratedItem CodedValue="Complement C3d Antibody" nciodm:ExtCodeID="C119271">
                    <nciodm:CDISCSynonym>Complement C3d Antibody</nciodm:CDISCSynonym>
                    <nciodm:CDISCDefinition>A measurement of the complement C3d antibody in a biological specimen.</nciodm:CDISCDefinition>
                    <nciodm:PreferredTerm>Complement C3d Antibody Measurement</nciodm:PreferredTerm>
                </EnumeratedItem>
                <EnumeratedItem CodedValue="Complement C4" nciodm:ExtCodeID="C80177">
                    <nciodm:CDISCSynonym>Complement C4</nciodm:CDISCSynonym>
                    <nciodm:CDISCDefinition>A measurement of the complement C4 in a biological specimen.</nciodm:CDISCDefinition>
                    <nciodm:PreferredTerm>Complement C4 Measurement</nciodm:PreferredTerm>
                </EnumeratedItem>
                <EnumeratedItem CodedValue="Complement C4a" nciodm:ExtCodeID="C80178">
                    <nciodm:CDISCSynonym>Complement C4a</nciodm:CDISCSynonym>
                    <nciodm:CDISCDefinition>A measurement of the complement C4a in a biological specimen.</nciodm:CDISCDefinition>
                    <nciodm:PreferredTerm>Complement C4a Measurement</nciodm:PreferredTerm>
                </EnumeratedItem>
                <EnumeratedItem CodedValue="Complement C4d" nciodm:ExtCodeID="C127610">
                    <nciodm:CDISCSynonym>Complement C4d</nciodm:CDISCSynonym>
                    <nciodm:CDISCDefinition>A measurement of the complement C4d in a biological specimen.</nciodm:CDISCDefinition>
                    <nciodm:PreferredTerm>Complement C4d Measurement</nciodm:PreferredTerm>
                </EnumeratedItem>
                <EnumeratedItem CodedValue="Complement C5a" nciodm:ExtCodeID="C80179">
                    <nciodm:CDISCSynonym>Complement C5a</nciodm:CDISCSynonym>
                    <nciodm:CDISCDefinition>A measurement of the complement C5a in a biological specimen.</nciodm:CDISCDefinition>
                    <nciodm:PreferredTerm>Complement C5a Measurement</nciodm:PreferredTerm>
                </EnumeratedItem>
                <EnumeratedItem CodedValue="Complement CH50" nciodm:ExtCodeID="C100423">
                    <nciodm:CDISCSynonym>CH50</nciodm:CDISCSynonym>
                    <nciodm:CDISCSynonym>Complement CH50</nciodm:CDISCSynonym>
                    <nciodm:CDISCSynonym>Total Hemolytic Complement</nciodm:CDISCSynonym>
                    <nciodm:CDISCDefinition>A measurement of the complement required to lyse 50 percent of red blood cells in a biological specimen.</nciodm:CDISCDefinition>
                    <nciodm:PreferredTerm>CH50 Measurement</nciodm:PreferredTerm>
                </EnumeratedItem>
                <EnumeratedItem CodedValue="Complement Total" nciodm:ExtCodeID="C80160">
                    <nciodm:CDISCSynonym>Complement Total</nciodm:CDISCSynonym>
                    <nciodm:CDISCDefinition>A measurement of the total complement in a biological specimen.</nciodm:CDISCDefinition>
                    <nciodm:PreferredTerm>Complement Measurement</nciodm:PreferredTerm>
                </EnumeratedItem>
                <EnumeratedItem CodedValue="Copeptin" nciodm:ExtCodeID="C127612">
                    <nciodm:CDISCSynonym>Copeptin</nciodm:CDISCSynonym>
                    <nciodm:CDISCDefinition>A measurement of the copeptin in a biological specimen.</nciodm:CDISCDefinition>
                    <nciodm:PreferredTerm>Copeptin Measurement</nciodm:PreferredTerm>
                </EnumeratedItem>
                <EnumeratedItem CodedValue="Copper" nciodm:ExtCodeID="C111161">
                    <nciodm:CDISCSynonym>Copper</nciodm:CDISCSynonym>
                    <nciodm:CDISCSynonym>Cu</nciodm:CDISCSynonym>
                    <nciodm:CDISCDefinition>A measurement of copper in a biological specimen.</nciodm:CDISCDefinition>
                    <nciodm:PreferredTerm>Copper Measurement</nciodm:PreferredTerm>
                </EnumeratedItem>
                <EnumeratedItem CodedValue="Corticosterone" nciodm:ExtCodeID="C79434">
                    <nciodm:CDISCSynonym>Corticosterone</nciodm:CDISCSynonym>
                    <nciodm:CDISCDefinition>A measurement of corticosterone in a biological specimen.</nciodm:CDISCDefinition>
                    <nciodm:PreferredTerm>Corticosterone Measurement</nciodm:PreferredTerm>
                </EnumeratedItem>
                <EnumeratedItem CodedValue="Corticosterone/Creatinine" nciodm:ExtCodeID="C106511">
                    <nciodm:CDISCSynonym>Corticosterone/Creatinine</nciodm:CDISCSynonym>
                    <nciodm:CDISCDefinition>A relative measurement (ratio or percentage) of the corticosterone to creatinine present in a sample.</nciodm:CDISCDefinition>
                    <nciodm:PreferredTerm>Corticosterone to Creatinine Ratio Measurement</nciodm:PreferredTerm>
                </EnumeratedItem>
                <EnumeratedItem CodedValue="Corticotropin Releasing Hormone" nciodm:ExtCodeID="C74851">
                    <nciodm:CDISCSynonym>Corticotropin Releasing Factor</nciodm:CDISCSynonym>
                    <nciodm:CDISCSynonym>Corticotropin Releasing Hormone</nciodm:CDISCSynonym>
                    <nciodm:CDISCDefinition>A measurement of the corticotropin releasing hormone in a biological specimen.</nciodm:CDISCDefinition>
                    <nciodm:PreferredTerm>Corticotropin Releasing Hormone Measurement</nciodm:PreferredTerm>
                </EnumeratedItem>
                <EnumeratedItem CodedValue="Cortisol" nciodm:ExtCodeID="C74781">
                    <nciodm:CDISCSynonym>Cortisol</nciodm:CDISCSynonym>
                    <nciodm:CDISCSynonym>Total Cortisol</nciodm:CDISCSynonym>
                    <nciodm:CDISCDefinition>A measurement of the cortisol in a biological specimen.</nciodm:CDISCDefinition>
                    <nciodm:PreferredTerm>Cortisol Measurement</nciodm:PreferredTerm>
                </EnumeratedItem>
                <EnumeratedItem CodedValue="Cortisol, Free" nciodm:ExtCodeID="C88113">
                    <nciodm:CDISCSynonym>Cortisol, Free</nciodm:CDISCSynonym>
                    <nciodm:CDISCDefinition>A measurement of the free, unbound cortisol in a biological specimen.</nciodm:CDISCDefinition>
                    <nciodm:PreferredTerm>Free Cortisol Measurement</nciodm:PreferredTerm>
                </EnumeratedItem>
                <EnumeratedItem CodedValue="Cortisol/Creatinine" nciodm:ExtCodeID="C106512">
                    <nciodm:CDISCSynonym>Cortisol/Creatinine</nciodm:CDISCSynonym>
                    <nciodm:CDISCDefinition>A relative measurement (ratio or percentage) of the cortisol to creatinine present in a sample.</nciodm:CDISCDefinition>
                    <nciodm:PreferredTerm>Cortisol to Creatinine Ratio Measurement</nciodm:PreferredTerm>
                </EnumeratedItem>
                <EnumeratedItem CodedValue="Cotinine" nciodm:ExtCodeID="C92249">
                    <nciodm:CDISCSynonym>Cotinine</nciodm:CDISCSynonym>
                    <nciodm:CDISCDefinition>A measurement of the cotinine in a biological specimen.</nciodm:CDISCDefinition>
                    <nciodm:PreferredTerm>Cotinine Measurement</nciodm:PreferredTerm>
                </EnumeratedItem>
                <EnumeratedItem CodedValue="Creatine Kinase" nciodm:ExtCodeID="C64489">
                    <nciodm:CDISCSynonym>CPK</nciodm:CDISCSynonym>
                    <nciodm:CDISCSynonym>Creatine Kinase</nciodm:CDISCSynonym>
                    <nciodm:CDISCDefinition>A measurement of the total creatine kinase in a biological specimen.</nciodm:CDISCDefinition>
                    <nciodm:PreferredTerm>Creatine Kinase Measurement</nciodm:PreferredTerm>
                </EnumeratedItem>
                <EnumeratedItem CodedValue="Creatine Kinase BB" nciodm:ExtCodeID="C64490">
                    <nciodm:CDISCSynonym>Creatine Kinase BB</nciodm:CDISCSynonym>
                    <nciodm:CDISCDefinition>A measurement of the homozygous B-type creatine kinase in a biological specimen.</nciodm:CDISCDefinition>
                    <nciodm:PreferredTerm>Creatine Kinase BB Measurement</nciodm:PreferredTerm>
                </EnumeratedItem>
                <EnumeratedItem CodedValue="Creatine Kinase BB/Total Creatine Kinase" nciodm:ExtCodeID="C79466">
                    <nciodm:CDISCSynonym>Creatine Kinase BB/Total Creatine Kinase</nciodm:CDISCSynonym>
                    <nciodm:CDISCDefinition>A relative measurement (ratio or percentage) of the BB-type creatine kinase to total creatine kinase in a biological specimen.</nciodm:CDISCDefinition>
                    <nciodm:PreferredTerm>Creatine Kinase BB to Total Creatine Kinase Ratio Measurement</nciodm:PreferredTerm>
                </EnumeratedItem>
                <EnumeratedItem CodedValue="Creatine Kinase MB" nciodm:ExtCodeID="C64491">
                    <nciodm:CDISCSynonym>Creatine Kinase MB</nciodm:CDISCSynonym>
                    <nciodm:CDISCDefinition>A measurement of the heterozygous MB-type creatine kinase in a biological specimen.</nciodm:CDISCDefinition>
                    <nciodm:PreferredTerm>Creatine Kinase MB Measurement</nciodm:PreferredTerm>
                </EnumeratedItem>
                <EnumeratedItem CodedValue="Creatine Kinase MB/Total Creatine Kinase" nciodm:ExtCodeID="C79441">
                    <nciodm:CDISCSynonym>Creatine Kinase MB/Total Creatine Kinase</nciodm:CDISCSynonym>
                    <nciodm:CDISCDefinition>A relative measurement (ratio or percentage) of the MB-type creatine kinase to total creatine kinase in a biological specimen.</nciodm:CDISCDefinition>
                    <nciodm:PreferredTerm>Creatine Kinase MB to Total Creatine Kinase Ratio Measurement</nciodm:PreferredTerm>
                </EnumeratedItem>
                <EnumeratedItem CodedValue="Creatine Kinase MM" nciodm:ExtCodeID="C64494">
                    <nciodm:CDISCSynonym>Creatine Kinase MM</nciodm:CDISCSynonym>
                    <nciodm:CDISCDefinition>A measurement of the homozygous M-type creatine kinase in a biological specimen.</nciodm:CDISCDefinition>
                    <nciodm:PreferredTerm>Creatine Kinase MM Measurement</nciodm:PreferredTerm>
                </EnumeratedItem>
                <EnumeratedItem CodedValue="Creatine Kinase MM/Total Creatine Kinase" nciodm:ExtCodeID="C79442">
                    <nciodm:CDISCSynonym>Creatine Kinase MM/Total Creatine Kinase</nciodm:CDISCSynonym>
                    <nciodm:CDISCDefinition>A relative measurement (ratio or percentage) of the MM-type creatine kinase to total creatine kinase in a biological specimen.</nciodm:CDISCDefinition>
                    <nciodm:PreferredTerm>Creatine Kinase MM to Total Creatine Kinase Ratio Measurement</nciodm:PreferredTerm>
                </EnumeratedItem>
                <EnumeratedItem CodedValue="Creatinine" nciodm:ExtCodeID="C64547">
                    <nciodm:CDISCSynonym>Creatinine</nciodm:CDISCSynonym>
                    <nciodm:CDISCDefinition>A measurement of the creatinine in a biological specimen.</nciodm:CDISCDefinition>
                    <nciodm:PreferredTerm>Creatinine Measurement</nciodm:PreferredTerm>
                </EnumeratedItem>
                <EnumeratedItem CodedValue="Creatinine Clearance" nciodm:ExtCodeID="C25747">
                    <nciodm:CDISCSynonym>Creatinine Clearance</nciodm:CDISCSynonym>
                    <nciodm:CDISCDefinition>A measurement of the volume of serum or plasma that would be cleared of creatinine by excretion of urine for a specified unit of time (e.g. one minute).</nciodm:CDISCDefinition>
                    <nciodm:PreferredTerm>Creatinine Clearance</nciodm:PreferredTerm>
                </EnumeratedItem>
                <EnumeratedItem CodedValue="Creatinine Excretion Rate" nciodm:ExtCodeID="C117833">
                    <nciodm:CDISCSynonym>Creatinine Excretion Rate</nciodm:CDISCSynonym>
                    <nciodm:CDISCDefinition>A measurement of the amount of creatinine being excreted in urine over a defined amount of time (e.g. one hour).</nciodm:CDISCDefinition>
                    <nciodm:PreferredTerm>Creatinine Urine Excretion Rate</nciodm:PreferredTerm>
                </EnumeratedItem>
                <EnumeratedItem CodedValue="Crenated Cells" nciodm:ExtCodeID="C74703">
                    <nciodm:CDISCSynonym>Crenated Cells</nciodm:CDISCSynonym>
                    <nciodm:CDISCSynonym>Echinocytes</nciodm:CDISCSynonym>
                    <nciodm:CDISCDefinition>A measurement of the Burr cells (erythrocytes characterized by the presence of multiple small, sharp projections evenly distributed across the cell surface) in a biological specimen.</nciodm:CDISCDefinition>
                    <nciodm:PreferredTerm>Crenated Cell Measurement</nciodm:PreferredTerm>
                </EnumeratedItem>
                <EnumeratedItem CodedValue="Cryoglobulin" nciodm:ExtCodeID="C111164">
                    <nciodm:CDISCSynonym>Cryoglobulin</nciodm:CDISCSynonym>
                    <nciodm:CDISCDefinition>A measurement of cryoglobulin in a biological specimen.</nciodm:CDISCDefinition>
                    <nciodm:PreferredTerm>Cryoglobulin Measurement</nciodm:PreferredTerm>
                </EnumeratedItem>
                <EnumeratedItem CodedValue="Crystals" nciodm:ExtCodeID="C74673">
                    <nciodm:CDISCSynonym>Crystals</nciodm:CDISCSynonym>
                    <nciodm:CDISCDefinition>A statement that indicates crystals were looked for in a biological specimen.</nciodm:CDISCDefinition>
                    <nciodm:PreferredTerm>Crystal Present Or Absent</nciodm:PreferredTerm>
                </EnumeratedItem>
                <EnumeratedItem CodedValue="Cyclic Adenosine 3,5-Monophosphate" nciodm:ExtCodeID="C124339">
                    <nciodm:CDISCSynonym>Cyclic Adenosine 3,5-Monophosphate</nciodm:CDISCSynonym>
                    <nciodm:CDISCDefinition>A measurement of cyclic adenosine 3,5-monophosphate in a biological specimen.</nciodm:CDISCDefinition>
                    <nciodm:PreferredTerm>Cyclic Adenosine 3,5-Monophosphate Measurement</nciodm:PreferredTerm>
                </EnumeratedItem>
                <EnumeratedItem CodedValue="Cyclic Citrullinated Peptide Antibody" nciodm:ExtCodeID="C96595">
                    <nciodm:CDISCSynonym>Cyclic Citrullinated Peptide Antibody</nciodm:CDISCSynonym>
                    <nciodm:CDISCDefinition>A measurement of the cyclic citrullinated peptide antibody in a biological specimen.</nciodm:CDISCDefinition>
                    <nciodm:PreferredTerm>Cyclic Citrullinated Peptide Antibody Measurement</nciodm:PreferredTerm>
                </EnumeratedItem>
                <EnumeratedItem CodedValue="Cyclic Guanosine Monophosphate" nciodm:ExtCodeID="C111165">
                    <nciodm:CDISCSynonym>Cyclic Guanosine Monophosphate</nciodm:CDISCSynonym>
                    <nciodm:CDISCDefinition>A measurement of the cyclic guanosine 3,5-monophosphate in a biological specimen.</nciodm:CDISCDefinition>
                    <nciodm:PreferredTerm>Cyclic Guanosine Monophosphate Measurement</nciodm:PreferredTerm>
                </EnumeratedItem>
                <EnumeratedItem CodedValue="Cystatin C" nciodm:ExtCodeID="C92290">
                    <nciodm:CDISCSynonym>Cystatin C</nciodm:CDISCSynonym>
                    <nciodm:CDISCDefinition>A measurement of the cystatin C in a biological specimen.</nciodm:CDISCDefinition>
                    <nciodm:PreferredTerm>Cystatin C Measurement</nciodm:PreferredTerm>
                </EnumeratedItem>
                <EnumeratedItem CodedValue="Cystatin C/Creatinine" nciodm:ExtCodeID="C106513">
                    <nciodm:CDISCSynonym>Cystatin C/Creatinine</nciodm:CDISCSynonym>
                    <nciodm:CDISCDefinition>A relative measurement (ratio or percentage) of the cystatin C to creatinine present in a sample.</nciodm:CDISCDefinition>
                    <nciodm:PreferredTerm>Cystatin C to Creatinine Ratio Measurement</nciodm:PreferredTerm>
                </EnumeratedItem>
                <EnumeratedItem CodedValue="Cystine" nciodm:ExtCodeID="C105441">
                    <nciodm:CDISCSynonym>Cystine</nciodm:CDISCSynonym>
                    <nciodm:CDISCDefinition>A measurement of the cystine in a biological specimen.</nciodm:CDISCDefinition>
                    <nciodm:PreferredTerm>Cystine Measurement</nciodm:PreferredTerm>
                </EnumeratedItem>
                <EnumeratedItem CodedValue="Cystine Crystals" nciodm:ExtCodeID="C74674">
                    <nciodm:CDISCSynonym>Cystine Crystals</nciodm:CDISCSynonym>
                    <nciodm:CDISCDefinition>A measurement of the cystine crystals present in a biological specimen.</nciodm:CDISCDefinition>
                    <nciodm:PreferredTerm>Cystine Crystal Measurement</nciodm:PreferredTerm>
                </EnumeratedItem>
                <EnumeratedItem CodedValue="Cytokeratin 18 Fragment" nciodm:ExtCodeID="C130160">
                    <nciodm:CDISCSynonym>Cytokeratin 18 Fragment</nciodm:CDISCSynonym>
                    <nciodm:CDISCDefinition>A measurement of the cytokeratin 18 fragment in a biological specimen.</nciodm:CDISCDefinition>
                    <nciodm:PreferredTerm>Cytokeratin 18 Fragment Measurement</nciodm:PreferredTerm>
                </EnumeratedItem>
                <EnumeratedItem CodedValue="Cytokeratin 19 Fragment 21-1" nciodm:ExtCodeID="C106514">
                    <nciodm:CDISCSynonym>CYFRA21-1</nciodm:CDISCSynonym>
                    <nciodm:CDISCSynonym>Cytokeratin 19 Fragment 21-1</nciodm:CDISCSynonym>
                    <nciodm:CDISCDefinition>A measurement of the cytokeratin 19 fragment 21-1 in a biological specimen.</nciodm:CDISCDefinition>
                    <nciodm:PreferredTerm>Cytokeratin 19 Fragment 21-1 Measurement</nciodm:PreferredTerm>
                </EnumeratedItem>
                <EnumeratedItem CodedValue="Cytomegalovirus IgG Antibody" nciodm:ExtCodeID="C96596">
                    <nciodm:CDISCSynonym>Cytomegalovirus IgG Antibody</nciodm:CDISCSynonym>
                    <nciodm:CDISCDefinition>A measurement of the cytomegalovirus IgG antibody in a biological specimen.</nciodm:CDISCDefinition>
                    <nciodm:PreferredTerm>Cytomegalovirus IgG Antibody Measurement</nciodm:PreferredTerm>
                </EnumeratedItem>
                <EnumeratedItem CodedValue="Cytomegalovirus IgM Antibody" nciodm:ExtCodeID="C96597">
                    <nciodm:CDISCSynonym>Cytomegalovirus IgM Antibody</nciodm:CDISCSynonym>
