<CodeList xmlns="http://www.cdisc.org/ns/odm/v1.3" xmlns:nciodm="http://ncicb.nci.nih.gov/xml/odm/EVS/CDISC" xmlns:xs="http://www.w3.org/2001/XMLSchema-instance" OID="CL.C96784.TUTESTCD" Name="Tumor or Lesion Identification Test Code" DataType="text" nciodm:ExtCodeID="C96784" nciodm:CodeListExtensible="Yes">
                <Description>
                    <TranslatedText xml:lang="en">Terminology relevant to the test codes that describe tumor or lesion assessments for identification purposes.</TranslatedText>
                </Description>
                <EnumeratedItem CodedValue="DRCRLTLC" nciodm:ExtCodeID="C123633">
                    <nciodm:CDISCSynonym>Disease Recurrence Relative Location</nciodm:CDISCSynonym>
                    <nciodm:CDISCDefinition>A description of the region or relative location for the disease recurrence.</nciodm:CDISCDefinition>
                    <nciodm:PreferredTerm>Disease Recurrence Relative Location</nciodm:PreferredTerm>
                </EnumeratedItem>
                <EnumeratedItem CodedValue="GRLIDENT" nciodm:ExtCodeID="C119567">
                    <nciodm:CDISCSynonym>Graft Lesion Identification</nciodm:CDISCSynonym>
                    <nciodm:CDISCDefinition>An indication that a graft with a lesion has been located and characterized.</nciodm:CDISCDefinition>
                    <nciodm:PreferredTerm>Graft Lesion Identification</nciodm:PreferredTerm>
                </EnumeratedItem>
                <EnumeratedItem CodedValue="LESIDENT" nciodm:ExtCodeID="C94189">
                    <nciodm:CDISCSynonym>Lesion Identification</nciodm:CDISCSynonym>
                    <nciodm:CDISCDefinition>An indication that a lesion has been located and characterized.</nciodm:CDISCDefinition>
                    <nciodm:PreferredTerm>Lesion Identification</nciodm:PreferredTerm>
                </EnumeratedItem>
                <EnumeratedItem CodedValue="LMLIDENT" nciodm:ExtCodeID="C119568">
                    <nciodm:CDISCSynonym>Limb Lesion Identification</nciodm:CDISCSynonym>
                    <nciodm:CDISCDefinition>An indication that a limb containing a lesion has been selected and characterized.</nciodm:CDISCDefinition>
                    <nciodm:PreferredTerm>Limb Associated Lesion Identification</nciodm:PreferredTerm>
                </EnumeratedItem>
                <EnumeratedItem CodedValue="TUMERGE" nciodm:ExtCodeID="C94525">
                    <nciodm:CDISCSynonym>Tumor Merged</nciodm:CDISCSynonym>
                    <nciodm:CDISCDefinition>An indication that multiple tumors have coalesced into one tumor.</nciodm:CDISCDefinition>
                    <nciodm:PreferredTerm>Matted Tumor Mass Present</nciodm:PreferredTerm>
                </EnumeratedItem>
                <EnumeratedItem CodedValue="TUMIDENT" nciodm:ExtCodeID="C94523">
                    <nciodm:CDISCSynonym>Tumor Identification</nciodm:CDISCSynonym>
                    <nciodm:CDISCDefinition>A classification of malignant disease manifestation as part of the response assessment.</nciodm:CDISCDefinition>
                    <nciodm:PreferredTerm>Tumor Identification</nciodm:PreferredTerm>
                </EnumeratedItem>
                <EnumeratedItem CodedValue="TUSPLIT" nciodm:ExtCodeID="C96642">
                    <nciodm:CDISCSynonym>Tumor Split</nciodm:CDISCSynonym>
                    <nciodm:CDISCDefinition>An indication that a single tumor has divided into two or more tumors.</nciodm:CDISCDefinition>
                    <nciodm:PreferredTerm>Tumor Split</nciodm:PreferredTerm>
                </EnumeratedItem>
                <EnumeratedItem CodedValue="VSLIDENT" nciodm:ExtCodeID="C119569">
                    <nciodm:CDISCSynonym>Vessel Lesion Identification</nciodm:CDISCSynonym>
                    <nciodm:CDISCDefinition>An indication that a vessel with a lesion has been located and characterized.</nciodm:CDISCDefinition>
                    <nciodm:PreferredTerm>Vessel Lesion Identification</nciodm:PreferredTerm>
                </EnumeratedItem>
                <nciodm:CDISCSubmissionValue>TUTESTCD</nciodm:CDISCSubmissionValue>
                <nciodm:CDISCSynonym>Tumor or Lesion Identification Test Code</nciodm:CDISCSynonym>
                <nciodm:PreferredTerm>CDISC SDTM Tumor Identification Test Code Terminology</nciodm:PreferredTerm>
            </CodeList>
            
