<CodeList xmlns="http://www.cdisc.org/ns/odm/v1.3" xmlns:nciodm="http://ncicb.nci.nih.gov/xml/odm/EVS/CDISC" xmlns:xs="http://www.w3.org/2001/XMLSchema-instance" OID="CL.C138248.PQL06TN" Name="Pediatric Quality of Life Neuromuscular Module Version 3 Child Parent Report Questionnaire Test Name" DataType="text" nciodm:ExtCodeID="C138248" nciodm:CodeListExtensible="No">
                <Description>
                    <TranslatedText xml:lang="en">Pediatric Quality of Life Neuromuscular Module Version 3 Child Parent Report test name.</TranslatedText>
                </Description>
                <EnumeratedItem CodedValue="PQL06-Back Feels Stiff" nciodm:ExtCodeID="C138737">
                    <nciodm:CDISCSynonym>PQL06-Back Feels Stiff</nciodm:CDISCSynonym>
                    <nciodm:CDISCDefinition>Pediatric Quality of Life Neuromuscular Module Version 3 Child Parent Report - In the past one month, how much of a problem has this been for your child: My child's back feels stiff.</nciodm:CDISCDefinition>
                    <nciodm:PreferredTerm>PedsQL Neuromuscular Module Version 3.0 Parent Report for Child - Back Feels Stiff</nciodm:PreferredTerm>
                </EnumeratedItem>
                <EnumeratedItem CodedValue="PQL06-Do Not Have Equipment Need" nciodm:ExtCodeID="C138756">
                    <nciodm:CDISCSynonym>PQL06-Do Not Have Equipment Need</nciodm:CDISCSynonym>
                    <nciodm:CDISCDefinition>Pediatric Quality of Life Neuromuscular Module Version 3 Child Parent Report - In the past one month, how much of a problem has this been for your child: My child does not have the equipment he or she needs.</nciodm:CDISCDefinition>
                    <nciodm:PreferredTerm>PedsQL Neuromuscular Module Version 3.0 Parent Report for Child - Do Not Have Equipment Need</nciodm:PreferredTerm>
                </EnumeratedItem>
                <EnumeratedItem CodedValue="PQL06-Family Has Lot of Problems" nciodm:ExtCodeID="C138755">
                    <nciodm:CDISCSynonym>PQL06-Family Has Lot of Problems</nciodm:CDISCSynonym>
                    <nciodm:CDISCDefinition>Pediatric Quality of Life Neuromuscular Module Version 3 Child Parent Report - In the past one month, how much of a problem has this been for your child: I think our family has a lot of problems.</nciodm:CDISCDefinition>
                    <nciodm:PreferredTerm>PedsQL Neuromuscular Module Version 3.0 Parent Report for Child - Family Has Lot of Problems</nciodm:PreferredTerm>
                </EnumeratedItem>
                <EnumeratedItem CodedValue="PQL06-Feel Tired" nciodm:ExtCodeID="C138736">
                    <nciodm:CDISCSynonym>PQL06-Feel Tired</nciodm:CDISCSynonym>
                    <nciodm:CDISCDefinition>Pediatric Quality of Life Neuromuscular Module Version 3 Child Parent Report - In the past one month, how much of a problem has this been for your child: My child feels tired.</nciodm:CDISCDefinition>
                    <nciodm:PreferredTerm>PedsQL Neuromuscular Module Version 3.0 Parent Report for Child - Feel Tired</nciodm:PreferredTerm>
                </EnumeratedItem>
                <EnumeratedItem CodedValue="PQL06-Get Hurt Accidentally" nciodm:ExtCodeID="C138745">
                    <nciodm:CDISCSynonym>PQL06-Get Hurt Accidentally</nciodm:CDISCSynonym>
                    <nciodm:CDISCDefinition>Pediatric Quality of Life Neuromuscular Module Version 3 Child Parent Report - In the past one month, how much of a problem has this been for your child: My child gets hurt accidentally.</nciodm:CDISCDefinition>
                    <nciodm:PreferredTerm>PedsQL Neuromuscular Module Version 3.0 Parent Report for Child - Get Hurt Accidentally</nciodm:PreferredTerm>
                </EnumeratedItem>
                <EnumeratedItem CodedValue="PQL06-Get Sick Easily" nciodm:ExtCodeID="C138733">
                    <nciodm:CDISCSynonym>PQL06-Get Sick Easily</nciodm:CDISCSynonym>
                    <nciodm:CDISCDefinition>Pediatric Quality of Life Neuromuscular Module Version 3 Child Parent Report - In the past one month, how much of a problem has this been for your child: My child gets sick easily.</nciodm:CDISCDefinition>
                    <nciodm:PreferredTerm>PedsQL Neuromuscular Module Version 3.0 Parent Report for Child - Get Sick Easily</nciodm:PreferredTerm>
                </EnumeratedItem>
                <EnumeratedItem CodedValue="PQL06-Get Sores and/or Rashes" nciodm:ExtCodeID="C138734">
                    <nciodm:CDISCSynonym>PQL06-Get Sores and/or Rashes</nciodm:CDISCSynonym>
                    <nciodm:CDISCDefinition>Pediatric Quality of Life Neuromuscular Module Version 3 Child Parent Report - In the past one month, how much of a problem has this been for your child: My child gets sores and/or rashes.</nciodm:CDISCDefinition>
                    <nciodm:PreferredTerm>PedsQL Neuromuscular Module Version 3.0 Parent Report for Child - Get Sores and/or Rashes</nciodm:PreferredTerm>
                </EnumeratedItem>
                <EnumeratedItem CodedValue="PQL06-Hands Are Weak" nciodm:ExtCodeID="C138739">
                    <nciodm:CDISCSynonym>PQL06-Hands Are Weak</nciodm:CDISCSynonym>
                    <nciodm:CDISCDefinition>Pediatric Quality of Life Neuromuscular Module Version 3 Child Parent Report - In the past one month, how much of a problem has this been for your child: My child's hands are weak.</nciodm:CDISCDefinition>
                    <nciodm:PreferredTerm>PedsQL Neuromuscular Module Version 3.0 Parent Report for Child - Hands Are Weak</nciodm:PreferredTerm>
                </EnumeratedItem>
                <EnumeratedItem CodedValue="PQL06-Hard Ask Doctors/Nurses Questions" nciodm:ExtCodeID="C138750">
                    <nciodm:CDISCSynonym>PQL06-Hard Ask Doctors/Nurses Questions</nciodm:CDISCSynonym>
                    <nciodm:CDISCDefinition>Pediatric Quality of Life Neuromuscular Module Version 3 Child Parent Report - In the past one month, how much of a problem has this been for your child: It is hard for my child to ask the doctors and nurses questions.</nciodm:CDISCDefinition>
                    <nciodm:PreferredTerm>PedsQL Neuromuscular Module Version 3.0 Parent Report for Child - Hard Ask Doctors and Nurses Questions</nciodm:PreferredTerm>
                </EnumeratedItem>
                <EnumeratedItem CodedValue="PQL06-Hard Explain Illness to People" nciodm:ExtCodeID="C138751">
                    <nciodm:CDISCSynonym>PQL06-Hard Explain Illness to People</nciodm:CDISCSynonym>
                    <nciodm:CDISCDefinition>Pediatric Quality of Life Neuromuscular Module Version 3 Child Parent Report - In the past one month, how much of a problem has this been for your child: It is hard for my child to explain his or her illness to other people.</nciodm:CDISCDefinition>
                    <nciodm:PreferredTerm>PedsQL Neuromuscular Module Version 3.0 Parent Report for Child - Hard Explain Illness to People</nciodm:PreferredTerm>
                </EnumeratedItem>
                <EnumeratedItem CodedValue="PQL06-Hard for Family to Plan Activities" nciodm:ExtCodeID="C138752">
                    <nciodm:CDISCSynonym>PQL06-Hard for Family to Plan Activities</nciodm:CDISCSynonym>
                    <nciodm:CDISCDefinition>Pediatric Quality of Life Neuromuscular Module Version 3 Child Parent Report - In the past one month, how much of a problem has this been for your child: It is hard for our family to plan activities like vacations.</nciodm:CDISCDefinition>
                    <nciodm:PreferredTerm>PedsQL Neuromuscular Module Version 3.0 Parent Report for Child - Hard for Family to Plan Activities</nciodm:PreferredTerm>
                </EnumeratedItem>
                <EnumeratedItem CodedValue="PQL06-Hard for Family to Rest" nciodm:ExtCodeID="C138753">
                    <nciodm:CDISCSynonym>PQL06-Hard for Family to Rest</nciodm:CDISCSynonym>
                    <nciodm:CDISCDefinition>Pediatric Quality of Life Neuromuscular Module Version 3 Child Parent Report - In the past one month, how much of a problem has this been for your child: It is hard for our family to get enough rest.</nciodm:CDISCDefinition>
                    <nciodm:PreferredTerm>PedsQL Neuromuscular Module Version 3.0 Parent Report for Child - Hard for Family to Rest</nciodm:PreferredTerm>
                </EnumeratedItem>
                <EnumeratedItem CodedValue="PQL06-Hard Tell Doctors/Nurses How Feel" nciodm:ExtCodeID="C138749">
                    <nciodm:CDISCSynonym>PQL06-Hard Tell Doctors/Nurses How Feel</nciodm:CDISCSynonym>
                    <nciodm:CDISCDefinition>Pediatric Quality of Life Neuromuscular Module Version 3 Child Parent Report - In the past one month, how much of a problem has this been for your child: It is hard for my child to tell the doctors and nurses how he or she feels.</nciodm:CDISCDefinition>
                    <nciodm:PreferredTerm>PedsQL Neuromuscular Module Version 3.0 Parent Report for Child - Hard Tell Doctors and Nurses How Feel</nciodm:PreferredTerm>
                </EnumeratedItem>
                <EnumeratedItem CodedValue="PQL06-Hard to Breathe" nciodm:ExtCodeID="C138732">
                    <nciodm:CDISCSynonym>PQL06-Hard to Breathe</nciodm:CDISCSynonym>
                    <nciodm:CDISCDefinition>Pediatric Quality of Life Neuromuscular Module Version 3 Child Parent Report - In the past one month, how much of a problem has this been for your child: It is hard for my child to breathe.</nciodm:CDISCDefinition>
                    <nciodm:PreferredTerm>PedsQL Neuromuscular Module Version 3.0 Parent Report for Child - Hard to Breathe</nciodm:PreferredTerm>
                </EnumeratedItem>
                <EnumeratedItem CodedValue="PQL06-Hard to Gain/Lose Weight" nciodm:ExtCodeID="C138741">
                    <nciodm:CDISCSynonym>PQL06-Hard to Gain/Lose Weight</nciodm:CDISCSynonym>
                    <nciodm:CDISCDefinition>Pediatric Quality of Life Neuromuscular Module Version 3 Child Parent Report - In the past one month, how much of a problem has this been for your child: It is hard for my child to gain or lose weight when he or she wants to.</nciodm:CDISCDefinition>
                    <nciodm:PreferredTerm>PedsQL Neuromuscular Module Version 3.0 Parent Report for Child - Hard to Gain or Lose Weight</nciodm:PreferredTerm>
                </EnumeratedItem>
                <EnumeratedItem CodedValue="PQL06-Hard to Go Places With Equipment" nciodm:ExtCodeID="C138748">
                    <nciodm:CDISCSynonym>PQL06-Hard to Go Places With Equipment</nciodm:CDISCSynonym>
                    <nciodm:CDISCDefinition>Pediatric Quality of Life Neuromuscular Module Version 3 Child Parent Report - In the past one month, how much of a problem has this been for your child: It is hard for my child to go places with his or her equipment.</nciodm:CDISCDefinition>
                    <nciodm:PreferredTerm>PedsQL Neuromuscular Module Version 3.0 Parent Report for Child - Hard to Go Places With Equipment</nciodm:PreferredTerm>
                </EnumeratedItem>
                <EnumeratedItem CodedValue="PQL06-Hard to Swallow Food" nciodm:ExtCodeID="C138743">
                    <nciodm:CDISCSynonym>PQL06-Hard to Swallow Food</nciodm:CDISCSynonym>
                    <nciodm:CDISCDefinition>Pediatric Quality of Life Neuromuscular Module Version 3 Child Parent Report - In the past one month, how much of a problem has this been for your child: It is hard for my child to swallow food.</nciodm:CDISCDefinition>
                    <nciodm:PreferredTerm>PedsQL Neuromuscular Module Version 3.0 Parent Report for Child - Hard to Swallow Food</nciodm:PreferredTerm>
                </EnumeratedItem>
                <EnumeratedItem CodedValue="PQL06-Hard to Turn During Night" nciodm:ExtCodeID="C138747">
                    <nciodm:CDISCSynonym>PQL06-Hard to Turn During Night</nciodm:CDISCSynonym>
                    <nciodm:CDISCDefinition>Pediatric Quality of Life Neuromuscular Module Version 3 Child Parent Report - In the past one month, how much of a problem has this been for your child: It is hard for my child to turn him or herself during the night.</nciodm:CDISCDefinition>
                    <nciodm:PreferredTerm>PedsQL Neuromuscular Module Version 3.0 Parent Report for Child - Hard to Turn During Night</nciodm:PreferredTerm>
                </EnumeratedItem>
                <EnumeratedItem CodedValue="PQL06-Hard to Use Bathroom" nciodm:ExtCodeID="C138740">
                    <nciodm:CDISCSynonym>PQL06-Hard to Use Bathroom</nciodm:CDISCSynonym>
                    <nciodm:CDISCDefinition>Pediatric Quality of Life Neuromuscular Module Version 3 Child Parent Report - In the past one month, how much of a problem has this been for your child: It is hard for my child to use the bathroom.</nciodm:CDISCDefinition>
                    <nciodm:PreferredTerm>PedsQL Neuromuscular Module Version 3.0 Parent Report for Child - Hard to Use Bathroom</nciodm:PreferredTerm>
                </EnumeratedItem>
                <EnumeratedItem CodedValue="PQL06-Hard to Use Hands" nciodm:ExtCodeID="C138742">
                    <nciodm:CDISCSynonym>PQL06-Hard to Use Hands</nciodm:CDISCSynonym>
                    <nciodm:CDISCDefinition>Pediatric Quality of Life Neuromuscular Module Version 3 Child Parent Report - In the past one month, how much of a problem has this been for your child: It is hard for my child to use his or her hands.</nciodm:CDISCDefinition>
                    <nciodm:PreferredTerm>PedsQL Neuromuscular Module Version 3.0 Parent Report for Child - Hard to Use Hands</nciodm:PreferredTerm>
                </EnumeratedItem>
                <EnumeratedItem CodedValue="PQL06-Legs Hurt" nciodm:ExtCodeID="C138735">
                    <nciodm:CDISCSynonym>PQL06-Legs Hurt</nciodm:CDISCSynonym>
                    <nciodm:CDISCDefinition>Pediatric Quality of Life Neuromuscular Module Version 3 Child Parent Report - In the past one month, how much of a problem has this been for your child: My child's legs hurt.</nciodm:CDISCDefinition>
                    <nciodm:PreferredTerm>PedsQL Neuromuscular Module Version 3.0 Parent Report for Child - Legs Hurt</nciodm:PreferredTerm>
                </EnumeratedItem>
                <EnumeratedItem CodedValue="PQL06-Long Time to Bathe/Shower" nciodm:ExtCodeID="C138744">
                    <nciodm:CDISCSynonym>PQL06-Long Time to Bathe/Shower</nciodm:CDISCSynonym>
                    <nciodm:CDISCDefinition>Pediatric Quality of Life Neuromuscular Module Version 3 Child Parent Report - In the past one month, how much of a problem has this been for your child: It takes my child a long time to bathe or shower.</nciodm:CDISCDefinition>
                    <nciodm:PreferredTerm>PedsQL Neuromuscular Module Version 3.0 Parent Report for Child - Long Time to Bathe or Shower</nciodm:PreferredTerm>
                </EnumeratedItem>
                <EnumeratedItem CodedValue="PQL06-Money Problem in Our Family" nciodm:ExtCodeID="C138754">
                    <nciodm:CDISCSynonym>PQL06-Money Problem in Our Family</nciodm:CDISCSynonym>
                    <nciodm:CDISCDefinition>Pediatric Quality of Life Neuromuscular Module Version 3 Child Parent Report - In the past one month, how much of a problem has this been for your child: I think money is a problem in our family.</nciodm:CDISCDefinition>
                    <nciodm:PreferredTerm>PedsQL Neuromuscular Module Version 3.0 Parent Report for Child - Money Problem in Our Family</nciodm:PreferredTerm>
                </EnumeratedItem>
                <EnumeratedItem CodedValue="PQL06-Take Long Time to Eat" nciodm:ExtCodeID="C138746">
                    <nciodm:CDISCSynonym>PQL06-Take Long Time to Eat</nciodm:CDISCSynonym>
                    <nciodm:CDISCDefinition>Pediatric Quality of Life Neuromuscular Module Version 3 Child Parent Report - In the past one month, how much of a problem has this been for your child: My child takes a long time to eat.</nciodm:CDISCDefinition>
                    <nciodm:PreferredTerm>PedsQL Neuromuscular Module Version 3.0 Parent Report for Child - Take Long Time to Eat</nciodm:PreferredTerm>
                </EnumeratedItem>
                <EnumeratedItem CodedValue="PQL06-Wake Up Tired" nciodm:ExtCodeID="C138738">
                    <nciodm:CDISCSynonym>PQL06-Wake Up Tired</nciodm:CDISCSynonym>
                    <nciodm:CDISCDefinition>Pediatric Quality of Life Neuromuscular Module Version 3 Child Parent Report - In the past one month, how much of a problem has this been for your child: My child wakes up tired.</nciodm:CDISCDefinition>
                    <nciodm:PreferredTerm>PedsQL Neuromuscular Module Version 3.0 Parent Report for Child - Wake Up Tired</nciodm:PreferredTerm>
                </EnumeratedItem>
                <nciodm:CDISCSubmissionValue>PQL06TN</nciodm:CDISCSubmissionValue>
                <nciodm:CDISCSynonym>Pediatric Quality of Life Neuromuscular Module Version 3 Child Parent Report Questionnaire Test Name</nciodm:CDISCSynonym>
                <nciodm:PreferredTerm>CDISC Questionnaire PedsQL Neuromuscular Module Version 3.0 Parent Report for Child Test Name Terminology</nciodm:PreferredTerm>
            </CodeList>
            
