<CodeList xmlns="http://www.cdisc.org/ns/odm/v1.3" xmlns:nciodm="http://ncicb.nci.nih.gov/xml/odm/EVS/CDISC" xmlns:xs="http://www.w3.org/2001/XMLSchema-instance" OID="CL.C66732.SEXPOP" Name="Sex of Participants" DataType="text" nciodm:ExtCodeID="C66732" nciodm:CodeListExtensible="No">
                <Description>
                    <TranslatedText xml:lang="en">The specific sex, either male, female, or mixed of the subject group being studied. (NCI)</TranslatedText>
                </Description>
                <EnumeratedItem CodedValue="BOTH" nciodm:ExtCodeID="C49636">
                    <nciodm:CDISCDefinition>One and the other; relating to or being two in conjunction. (NCI)</nciodm:CDISCDefinition>
                    <nciodm:PreferredTerm>Both</nciodm:PreferredTerm>
                </EnumeratedItem>
                <EnumeratedItem CodedValue="F" nciodm:ExtCodeID="C16576">
                    <nciodm:CDISCSynonym>Female</nciodm:CDISCSynonym>
                    <nciodm:CDISCDefinition>A person who belongs to the sex that normally produces ova. The term is used to indicate biological sex distinctions, or cultural gender role distinctions, or both. (NCI)</nciodm:CDISCDefinition>
                    <nciodm:PreferredTerm>Female</nciodm:PreferredTerm>
                </EnumeratedItem>
                <EnumeratedItem CodedValue="M" nciodm:ExtCodeID="C20197">
                    <nciodm:CDISCSynonym>Male</nciodm:CDISCSynonym>
                    <nciodm:CDISCDefinition>A person who belongs to the sex that normally produces sperm. The term is used to indicate biological sex distinctions, cultural gender role distinctions, or both. (NCI)</nciodm:CDISCDefinition>
                    <nciodm:PreferredTerm>Male</nciodm:PreferredTerm>
                </EnumeratedItem>
                <nciodm:CDISCSubmissionValue>SEXPOP</nciodm:CDISCSubmissionValue>
                <nciodm:CDISCSynonym>Sex of Participants</nciodm:CDISCSynonym>
                <nciodm:PreferredTerm>CDISC SDTM Sex of Study Group Terminology</nciodm:PreferredTerm>
            </CodeList>
            
