<CodeList xmlns="http://www.cdisc.org/ns/odm/v1.3" xmlns:nciodm="http://ncicb.nci.nih.gov/xml/odm/EVS/CDISC" xmlns:xs="http://www.w3.org/2001/XMLSchema-instance" OID="CL.C124663.TANNER SCALE GIRL TEST" Name="Tanner Scale Girl Clinical Classification Test Name" DataType="text" nciodm:ExtCodeID="C124663" nciodm:CodeListExtensible="No">
                <Description>
                    <TranslatedText xml:lang="en">Tanner Scale Girl test name.</TranslatedText>
                </Description>
                <EnumeratedItem CodedValue="TANN01-Breast Stages" nciodm:ExtCodeID="C124718">
                    <nciodm:CDISCSynonym>TANN01-Breast Stages</nciodm:CDISCSynonym>
                    <nciodm:CDISCDefinition>Tanner Scale Girl - Breast stages.</nciodm:CDISCDefinition>
                    <nciodm:PreferredTerm>Tanner Scale-Girl - Breast Stages</nciodm:PreferredTerm>
                </EnumeratedItem>
                <EnumeratedItem CodedValue="TANN01-Pubic Hair Stages" nciodm:ExtCodeID="C124719">
                    <nciodm:CDISCSynonym>TANN01-Pubic Hair Stages</nciodm:CDISCSynonym>
                    <nciodm:CDISCDefinition>Tanner Scale Girl - Pubic hair stages.</nciodm:CDISCDefinition>
                    <nciodm:PreferredTerm>Tanner Scale-Girl - Pubic Hair Stages</nciodm:PreferredTerm>
                </EnumeratedItem>
                <nciodm:CDISCSubmissionValue>TANNER SCALE GIRL TEST</nciodm:CDISCSubmissionValue>
                <nciodm:CDISCSynonym>Tanner Scale Girl Clinical Classification Test Name</nciodm:CDISCSynonym>
                <nciodm:PreferredTerm>CDISC Clinical Classification Tanner Scale-Girl Test Name Terminology</nciodm:PreferredTerm>
            </CodeList>
            
