<CodeList xmlns="http://www.cdisc.org/ns/odm/v1.3" xmlns:nciodm="http://ncicb.nci.nih.gov/xml/odm/EVS/CDISC" xmlns:xs="http://www.w3.org/2001/XMLSchema-instance" OID="CL.C101852.SDTHSDTP" Name="Sudden Death Syndrome Type" DataType="text" nciodm:ExtCodeID="C101852" nciodm:CodeListExtensible="No">
                <Description>
                    <TranslatedText xml:lang="en">A terminology codelist that describes syndromes or conditions that put a subject at risk for sudden death.</TranslatedText>
                </Description>
                <EnumeratedItem CodedValue="BRUGADA SYNDROME" nciodm:ExtCodeID="C71059">
                    <nciodm:CDISCSynonym>Ventricular arrhythmia associated with Brugada syndrome</nciodm:CDISCSynonym>
                    <nciodm:CDISCDefinition>Polymorphic ventricular tachycardia in the absence of structural heart disease, associated with a baseline ECG pattern during sinus rhythm showing right bundle branch block with ST segment elevation in leads V1 through V3. It can also be characterized by documentation of ECG patterns associated with Brugada Syndrome, some of which may be unmasked when provoked with drugs. The most common genetic mutations identified for Brugada syndrome are in the sodium channel gene SCN5A.</nciodm:CDISCDefinition>
                    <nciodm:PreferredTerm>Brugada Syndrome Ventricular Arrhythmia by ECG Finding</nciodm:PreferredTerm>
                </EnumeratedItem>
                <EnumeratedItem CodedValue="CATECHOLAMINERGIC POLYMORPHIC VENTRICULAR TACHYCARDIA" nciodm:ExtCodeID="C99936">
                    <nciodm:CDISCDefinition>Ventricular Tachycardia associated with syncope and/or cardiac arrest triggered by emotion or exercise in patients whose baseline ECG is normal.</nciodm:CDISCDefinition>
                    <nciodm:PreferredTerm>Catecholaminergic Polymorphic Ventricular Tachycardia by ECG Finding</nciodm:PreferredTerm>
                </EnumeratedItem>
                <EnumeratedItem CodedValue="IDIOPATHIC PRIMARY VENTRICULAR TACHYCARDIA/VENTRICULAR FLUTTER" nciodm:ExtCodeID="C100036">
                    <nciodm:CDISCDefinition>Ventricular tachycardia or ventricular fibrillation whose cause is unknown.</nciodm:CDISCDefinition>
                    <nciodm:PreferredTerm>Idiopathic Primary Ventricular Tachycardia/Ventricular Flutter by ECG Finding</nciodm:PreferredTerm>
                </EnumeratedItem>
                <EnumeratedItem CodedValue="LONG QT SYNDROME" nciodm:ExtCodeID="C34786">
                    <nciodm:CDISCSynonym>Ventricular arrhythmia associated with long QT syndrome</nciodm:CDISCSynonym>
                    <nciodm:CDISCDefinition>Long QT Syndrome includes prolongation of the corrected QT interval beyond 440 ms for adult males, 460 ms for adult females and 50 ms in the presence of ventricular depolarization abnormalities (i.e., bundle branch blocks or IVCB more than 120 ms. A normal QT interval in a resting ECG with a failure to shorten with an increase in heart rate qualifies as Long QT Syndrome.</nciodm:CDISCDefinition>
                    <nciodm:PreferredTerm>Long QT Syndrome</nciodm:PreferredTerm>
                </EnumeratedItem>
                <EnumeratedItem CodedValue="OTHER" nciodm:ExtCodeID="C17649">
                    <nciodm:CDISCSynonym>Other</nciodm:CDISCSynonym>
                    <nciodm:CDISCDefinition>Different than the one(s) previously specified or mentioned. (NCI)</nciodm:CDISCDefinition>
                    <nciodm:PreferredTerm>Other</nciodm:PreferredTerm>
                </EnumeratedItem>
                <EnumeratedItem CodedValue="SHORT QT SYNDROME" nciodm:ExtCodeID="C71060">
                    <nciodm:CDISCSynonym>Ventricular arrhythmia associated with short QT syndrome</nciodm:CDISCSynonym>
                    <nciodm:CDISCDefinition>Short QT Syndrome is characterized by a QT interval of less than or equal to 300 ms.</nciodm:CDISCDefinition>
                    <nciodm:PreferredTerm>Short QT Syndrome</nciodm:PreferredTerm>
                </EnumeratedItem>
                <nciodm:CDISCSubmissionValue>SDTHSDTP</nciodm:CDISCSubmissionValue>
                <nciodm:CDISCSynonym>Sudden Death Syndrome Type</nciodm:CDISCSynonym>
                <nciodm:PreferredTerm>CDISC SDTM Sudden Death Syndrome Type Terminology</nciodm:PreferredTerm>
            </CodeList>
            
