<CodeList xmlns="http://www.cdisc.org/ns/odm/v1.3" xmlns:nciodm="http://ncicb.nci.nih.gov/xml/odm/EVS/CDISC" xmlns:xs="http://www.w3.org/2001/XMLSchema-instance" OID="CL.C130281.WD4TC" Name="World Health Organization Disability Assessment Schedule 2.0 - 12 + 24-Item Interviewer Questionnaire Test Code" DataType="text" nciodm:ExtCodeID="C130281" nciodm:CodeListExtensible="No">
                <Description>
                    <TranslatedText xml:lang="en">World Health Organization Disability Assessment Schedule 2.0 - 12 + 24-Item Interviewer test code.</TranslatedText>
                </Description>
                <EnumeratedItem CodedValue="WD4A1" nciodm:ExtCodeID="C130850">
                    <nciodm:CDISCSynonym>WD4-Sex as Observed</nciodm:CDISCSynonym>
                    <nciodm:CDISCDefinition>World Health Organization Disability Assessment Schedule 2.0 - 12 + 24-Item Interviewer - Record sex as observed.</nciodm:CDISCDefinition>
                    <nciodm:PreferredTerm>WHODAS 2.0 12+24-item Version Interviewer-administered - Observed Sex</nciodm:PreferredTerm>
                </EnumeratedItem>
                <EnumeratedItem CodedValue="WD4A2" nciodm:ExtCodeID="C130851">
                    <nciodm:CDISCSynonym>WD4-How Old Are You Now</nciodm:CDISCSynonym>
                    <nciodm:CDISCDefinition>World Health Organization Disability Assessment Schedule 2.0 - 12 + 24-Item Interviewer - How old are you now?</nciodm:CDISCDefinition>
                    <nciodm:PreferredTerm>WHODAS 2.0 12+24-item Version Interviewer-administered - How Old Are You Now</nciodm:PreferredTerm>
                </EnumeratedItem>
                <EnumeratedItem CodedValue="WD4A3" nciodm:ExtCodeID="C130852">
                    <nciodm:CDISCSynonym>WD4-Years Studying in School/College</nciodm:CDISCSynonym>
                    <nciodm:CDISCDefinition>World Health Organization Disability Assessment Schedule 2.0 - 12 + 24-Item Interviewer - How many years in all did you spend studying in school, college or university?</nciodm:CDISCDefinition>
                    <nciodm:PreferredTerm>WHODAS 2.0 12+24-item Version Interviewer-administered - Years Studying in School or College</nciodm:PreferredTerm>
                </EnumeratedItem>
                <EnumeratedItem CodedValue="WD4A4" nciodm:ExtCodeID="C130853">
                    <nciodm:CDISCSynonym>WD4-Current Marital Status</nciodm:CDISCSynonym>
                    <nciodm:CDISCDefinition>World Health Organization Disability Assessment Schedule 2.0 - 12 + 24-Item Interviewer - What is your current marital status?</nciodm:CDISCDefinition>
                    <nciodm:PreferredTerm>WHODAS 2.0 12+24-item Version Interviewer-administered - Current Marital Status</nciodm:PreferredTerm>
                </EnumeratedItem>
                <EnumeratedItem CodedValue="WD4A5" nciodm:ExtCodeID="C130854">
                    <nciodm:CDISCSynonym>WD4-Describes Main Work Status Best</nciodm:CDISCSynonym>
                    <nciodm:CDISCDefinition>World Health Organization Disability Assessment Schedule 2.0 - 12 + 24-Item Interviewer - Which describes your main work status best?</nciodm:CDISCDefinition>
                    <nciodm:PreferredTerm>WHODAS 2.0 12+24-item Version Interviewer-administered - Describes Main Work Status Best</nciodm:PreferredTerm>
                </EnumeratedItem>
                <EnumeratedItem CodedValue="WD4D1_2" nciodm:ExtCodeID="C130867">
                    <nciodm:CDISCSynonym>WD4-Remembering to Do Important Things</nciodm:CDISCSynonym>
                    <nciodm:CDISCDefinition>World Health Organization Disability Assessment Schedule 2.0 - 12 + 24-Item Interviewer - In the past 30 days, how much difficulty did you have in: Remembering to do important things?</nciodm:CDISCDefinition>
                    <nciodm:PreferredTerm>WHODAS 2.0 12+24-item Version Interviewer-administered - Remembering to Do Important Things</nciodm:PreferredTerm>
                </EnumeratedItem>
                <EnumeratedItem CodedValue="WD4D1_3" nciodm:ExtCodeID="C130868">
                    <nciodm:CDISCSynonym>WD4-Finding Solutions to Problems</nciodm:CDISCSynonym>
                    <nciodm:CDISCDefinition>World Health Organization Disability Assessment Schedule 2.0 - 12 + 24-Item Interviewer - In the past 30 days, how much difficulty did you have in: Analysing and finding solutions to problems in day-to-day life?</nciodm:CDISCDefinition>
                    <nciodm:PreferredTerm>WHODAS 2.0 12+24-item Version Interviewer-administered - Finding Solutions to Problems</nciodm:PreferredTerm>
                </EnumeratedItem>
                <EnumeratedItem CodedValue="WD4D1_5" nciodm:ExtCodeID="C130869">
                    <nciodm:CDISCSynonym>WD4-Understanding What People Say</nciodm:CDISCSynonym>
                    <nciodm:CDISCDefinition>World Health Organization Disability Assessment Schedule 2.0 - 12 + 24-Item Interviewer - In the past 30 days, how much difficulty did you have in: Generally understanding what people say?</nciodm:CDISCDefinition>
                    <nciodm:PreferredTerm>WHODAS 2.0 12+24-item Version Interviewer-administered - Understanding What People Say</nciodm:PreferredTerm>
                </EnumeratedItem>
                <EnumeratedItem CodedValue="WD4D1_6" nciodm:ExtCodeID="C130870">
                    <nciodm:CDISCSynonym>WD4-Starting/Maintaining Conversation</nciodm:CDISCSynonym>
                    <nciodm:CDISCDefinition>World Health Organization Disability Assessment Schedule 2.0 - 12 + 24-Item Interviewer - In the past 30 days, how much difficulty did you have in: Starting and maintaining a conversation?</nciodm:CDISCDefinition>
                    <nciodm:PreferredTerm>WHODAS 2.0 12+24-item Version Interviewer-administered - Starting or Maintaining Conversation</nciodm:PreferredTerm>
                </EnumeratedItem>
                <EnumeratedItem CodedValue="WD4D2_2" nciodm:ExtCodeID="C130871">
                    <nciodm:CDISCSynonym>WD4-Standing Up From Sitting Down</nciodm:CDISCSynonym>
                    <nciodm:CDISCDefinition>World Health Organization Disability Assessment Schedule 2.0 - 12 + 24-Item Interviewer - In the past 30 days, how much difficulty did you have in: Standing up from sitting down?</nciodm:CDISCDefinition>
                    <nciodm:PreferredTerm>WHODAS 2.0 12+24-item Version Interviewer-administered - Standing Up From Sitting Down</nciodm:PreferredTerm>
                </EnumeratedItem>
                <EnumeratedItem CodedValue="WD4D2_3" nciodm:ExtCodeID="C130872">
                    <nciodm:CDISCSynonym>WD4-Moving Around Inside Your Home</nciodm:CDISCSynonym>
                    <nciodm:CDISCDefinition>World Health Organization Disability Assessment Schedule 2.0 - 12 + 24-Item Interviewer - In the past 30 days, how much difficulty did you have in: Moving around inside your home?</nciodm:CDISCDefinition>
                    <nciodm:PreferredTerm>WHODAS 2.0 12+24-item Version Interviewer-administered - Moving Around Inside Your Home</nciodm:PreferredTerm>
                </EnumeratedItem>
                <EnumeratedItem CodedValue="WD4D2_4" nciodm:ExtCodeID="C130873">
                    <nciodm:CDISCSynonym>WD4-Getting Out of Your Home</nciodm:CDISCSynonym>
                    <nciodm:CDISCDefinition>World Health Organization Disability Assessment Schedule 2.0 - 12 + 24-Item Interviewer - In the past 30 days, how much difficulty did you have in: Getting out of your home?</nciodm:CDISCDefinition>
                    <nciodm:PreferredTerm>WHODAS 2.0 12+24-item Version Interviewer-administered - Getting Out of Your Home</nciodm:PreferredTerm>
                </EnumeratedItem>
                <EnumeratedItem CodedValue="WD4D3_3" nciodm:ExtCodeID="C130874">
                    <nciodm:CDISCSynonym>WD4-Eating</nciodm:CDISCSynonym>
                    <nciodm:CDISCDefinition>World Health Organization Disability Assessment Schedule 2.0 - 12 + 24-Item Interviewer - In the past 30 days, how much difficulty did you have in: Eating?</nciodm:CDISCDefinition>
                    <nciodm:PreferredTerm>WHODAS 2.0 12+24-item Version Interviewer-administered - Eating</nciodm:PreferredTerm>
                </EnumeratedItem>
                <EnumeratedItem CodedValue="WD4D3_4" nciodm:ExtCodeID="C130875">
                    <nciodm:CDISCSynonym>WD4-Staying By Yourself for a Few Days</nciodm:CDISCSynonym>
                    <nciodm:CDISCDefinition>World Health Organization Disability Assessment Schedule 2.0 - 12 + 24-Item Interviewer - In the past 30 days, how much difficulty did you have in: Staying by yourself for a few days?</nciodm:CDISCDefinition>
                    <nciodm:PreferredTerm>WHODAS 2.0 12+24-item Version Interviewer-administered - Staying By Yourself for a Few Days</nciodm:PreferredTerm>
                </EnumeratedItem>
                <EnumeratedItem CodedValue="WD4D4_3" nciodm:ExtCodeID="C130876">
                    <nciodm:CDISCSynonym>WD4-Get Along with People Close to You</nciodm:CDISCSynonym>
                    <nciodm:CDISCDefinition>World Health Organization Disability Assessment Schedule 2.0 - 12 + 24-Item Interviewer - In the past 30 days, how much difficulty did you have in: Getting along with people who are close to you?</nciodm:CDISCDefinition>
                    <nciodm:PreferredTerm>WHODAS 2.0 12+24-item Version Interviewer-administered - Get Along with People Close to You</nciodm:PreferredTerm>
                </EnumeratedItem>
                <EnumeratedItem CodedValue="WD4D4_4" nciodm:ExtCodeID="C130877">
                    <nciodm:CDISCSynonym>WD4-Making New Friends</nciodm:CDISCSynonym>
                    <nciodm:CDISCDefinition>World Health Organization Disability Assessment Schedule 2.0 - 12 + 24-Item Interviewer - In the past 30 days, how much difficulty did you have in: Making new friends?</nciodm:CDISCDefinition>
                    <nciodm:PreferredTerm>WHODAS 2.0 12+24-item Version Interviewer-administered - Making New Friends</nciodm:PreferredTerm>
                </EnumeratedItem>
                <EnumeratedItem CodedValue="WD4D4_5" nciodm:ExtCodeID="C130878">
                    <nciodm:CDISCSynonym>WD4-Sexual Activities</nciodm:CDISCSynonym>
                    <nciodm:CDISCDefinition>World Health Organization Disability Assessment Schedule 2.0 - 12 + 24-Item Interviewer - In the past 30 days, how much difficulty did you have in: Sexual activities?</nciodm:CDISCDefinition>
                    <nciodm:PreferredTerm>WHODAS 2.0 12+24-item Version Interviewer-administered - Sexual Activities</nciodm:PreferredTerm>
                </EnumeratedItem>
                <EnumeratedItem CodedValue="WD4D5_01" nciodm:ExtCodeID="C130882">
                    <nciodm:CDISCSynonym>WD4-Reduce or Miss Household Work</nciodm:CDISCSynonym>
                    <nciodm:CDISCDefinition>World Health Organization Disability Assessment Schedule 2.0 - 12 + 24-Item Interviewer - In the past 30 days, on how many days did you reduce or completely miss household work because of your health condition?</nciodm:CDISCDefinition>
                    <nciodm:PreferredTerm>WHODAS 2.0 12+24-item Version Interviewer-administered - Reduce or Miss Household Work</nciodm:PreferredTerm>
                </EnumeratedItem>
                <EnumeratedItem CodedValue="WD4D5_02" nciodm:ExtCodeID="C130888">
                    <nciodm:CDISCSynonym>WD4-Miss Work Half Day or More</nciodm:CDISCSynonym>
                    <nciodm:CDISCDefinition>World Health Organization Disability Assessment Schedule 2.0 - 12 + 24-Item Interviewer - In the past 30 days, on how many days did you miss work for half a day or more because of your health condition?</nciodm:CDISCDefinition>
                    <nciodm:PreferredTerm>WHODAS 2.0 12+24-item Version Interviewer-administered - Miss Work Half Day or More</nciodm:PreferredTerm>
                </EnumeratedItem>
                <EnumeratedItem CodedValue="WD4D5_10" nciodm:ExtCodeID="C130887">
                    <nciodm:CDISCSynonym>WD4-Earn Less Money</nciodm:CDISCSynonym>
                    <nciodm:CDISCDefinition>World Health Organization Disability Assessment Schedule 2.0 - 12 + 24-Item Interviewer - Because of your health condition, in the past 30 days how much difficulty did you have in: Did you earn less money as the result of a health condition?</nciodm:CDISCDefinition>
                    <nciodm:PreferredTerm>WHODAS 2.0 12+24-item Version Interviewer-administered - Earn Less Money</nciodm:PreferredTerm>
                </EnumeratedItem>
                <EnumeratedItem CodedValue="WD4D5_2" nciodm:ExtCodeID="C130879">
                    <nciodm:CDISCSynonym>WD4-Doing Important Household Tasks</nciodm:CDISCSynonym>
                    <nciodm:CDISCDefinition>World Health Organization Disability Assessment Schedule 2.0 - 12 + 24-Item Interviewer - Because of your health condition, in the past 30 days, how much difficulty did you have in: Doing your most important household tasks well?</nciodm:CDISCDefinition>
                    <nciodm:PreferredTerm>WHODAS 2.0 12+24-item Version Interviewer-administered - Doing Important Household Tasks</nciodm:PreferredTerm>
                </EnumeratedItem>
                <EnumeratedItem CodedValue="WD4D5_3" nciodm:ExtCodeID="C130880">
                    <nciodm:CDISCSynonym>WD4-Getting Household Work Done Needed</nciodm:CDISCSynonym>
                    <nciodm:CDISCDefinition>World Health Organization Disability Assessment Schedule 2.0 - 12 + 24-Item Interviewer - Because of your health condition, in the past 30 days, how much difficulty did you have in: Getting all the household work done that you needed to do?</nciodm:CDISCDefinition>
                    <nciodm:PreferredTerm>WHODAS 2.0 12+24-item Version Interviewer-administered - Getting Household Work Done Needed</nciodm:PreferredTerm>
                </EnumeratedItem>
                <EnumeratedItem CodedValue="WD4D5_4" nciodm:ExtCodeID="C130881">
                    <nciodm:CDISCSynonym>WD4-Getting Household Work Done Quickly</nciodm:CDISCSynonym>
                    <nciodm:CDISCDefinition>World Health Organization Disability Assessment Schedule 2.0 - 12 + 24-Item Interviewer - Because of your health condition, in the past 30 days, how much difficulty did you have in: Getting your household work done as quickly as needed?</nciodm:CDISCDefinition>
                    <nciodm:PreferredTerm>WHODAS 2.0 12+24-item Version Interviewer-administered - Getting Household Work Done Quickly</nciodm:PreferredTerm>
                </EnumeratedItem>
                <EnumeratedItem CodedValue="WD4D5_6" nciodm:ExtCodeID="C130883">
                    <nciodm:CDISCSynonym>WD4-Doing Important Work/School Tasks</nciodm:CDISCSynonym>
                    <nciodm:CDISCDefinition>World Health Organization Disability Assessment Schedule 2.0 - 12 + 24-Item Interviewer - Because of your health condition, in the past 30 days how much difficulty did you have in: Doing your most important work/school tasks well?</nciodm:CDISCDefinition>
                    <nciodm:PreferredTerm>WHODAS 2.0 12+24-item Version Interviewer-administered - Doing Important Work or School Tasks</nciodm:PreferredTerm>
                </EnumeratedItem>
                <EnumeratedItem CodedValue="WD4D5_7" nciodm:ExtCodeID="C130884">
                    <nciodm:CDISCSynonym>WD4-Getting All Work Done You Need</nciodm:CDISCSynonym>
                    <nciodm:CDISCDefinition>World Health Organization Disability Assessment Schedule 2.0 - 12 + 24-Item Interviewer - Because of your health condition, in the past 30 days how much difficulty did you have in: Getting all the work done that you need to do?</nciodm:CDISCDefinition>
                    <nciodm:PreferredTerm>WHODAS 2.0 12+24-item Version Interviewer-administered - Getting All Work Done You Need</nciodm:PreferredTerm>
                </EnumeratedItem>
                <EnumeratedItem CodedValue="WD4D5_8" nciodm:ExtCodeID="C130885">
                    <nciodm:CDISCSynonym>WD4-Getting Work Done Quickly as Needed</nciodm:CDISCSynonym>
                    <nciodm:CDISCDefinition>World Health Organization Disability Assessment Schedule 2.0 - 12 + 24-Item Interviewer - Because of your health condition, in the past 30 days how much difficulty did you have in: Getting your work done as quickly as needed?</nciodm:CDISCDefinition>
                    <nciodm:PreferredTerm>WHODAS 2.0 12+24-item Version Interviewer-administered - Getting Work Done Quickly as Needed</nciodm:PreferredTerm>
                </EnumeratedItem>
                <EnumeratedItem CodedValue="WD4D5_9" nciodm:ExtCodeID="C130886">
                    <nciodm:CDISCSynonym>WD4-Had to Work at a Lower Level</nciodm:CDISCSynonym>
                    <nciodm:CDISCDefinition>World Health Organization Disability Assessment Schedule 2.0 - 12 + 24-Item Interviewer - Because of your health condition, in the past 30 days how much difficulty did you have in: Have you had to work at a lower level because of a health condition?</nciodm:CDISCDefinition>
                    <nciodm:PreferredTerm>WHODAS 2.0 12+24-item Version Interviewer-administered - Had to Work at a Lower Level</nciodm:PreferredTerm>
                </EnumeratedItem>
                <EnumeratedItem CodedValue="WD4D6_2" nciodm:ExtCodeID="C130889">
                    <nciodm:CDISCSynonym>WD4-Problem Because of Barriers in World</nciodm:CDISCSynonym>
                    <nciodm:CDISCDefinition>World Health Organization Disability Assessment Schedule 2.0 - 12 + 24-Item Interviewer - In the past 30 days: How much of a problem did you have because of barriers or hindrances in the world around you?</nciodm:CDISCDefinition>
                    <nciodm:PreferredTerm>WHODAS 2.0 12+24-item Version Interviewer-administered - Problem Because of Barriers in World</nciodm:PreferredTerm>
                </EnumeratedItem>
                <EnumeratedItem CodedValue="WD4D6_3" nciodm:ExtCodeID="C130890">
                    <nciodm:CDISCSynonym>WD4-Problem Living With Dignity</nciodm:CDISCSynonym>
                    <nciodm:CDISCDefinition>World Health Organization Disability Assessment Schedule 2.0 - 12 + 24-Item Interviewer - In the past 30 days: How much of a problem did you have living with dignity because of the attitudes and actions of others?</nciodm:CDISCDefinition>
                    <nciodm:PreferredTerm>WHODAS 2.0 12+24-item Version Interviewer-administered - Problem Living With Dignity</nciodm:PreferredTerm>
                </EnumeratedItem>
                <EnumeratedItem CodedValue="WD4D6_4" nciodm:ExtCodeID="C130891">
                    <nciodm:CDISCSynonym>WD4-Time Spend on Your Health Condition</nciodm:CDISCSynonym>
                    <nciodm:CDISCDefinition>World Health Organization Disability Assessment Schedule 2.0 - 12 + 24-Item Interviewer - In the past 30 days: How much time did you spend on your health condition, or its consequences?</nciodm:CDISCDefinition>
                    <nciodm:PreferredTerm>WHODAS 2.0 12+24-item Version Interviewer-administered - Time Spend on Your Health Condition</nciodm:PreferredTerm>
                </EnumeratedItem>
                <EnumeratedItem CodedValue="WD4D6_6" nciodm:ExtCodeID="C130892">
                    <nciodm:CDISCSynonym>WD4-Drain on Financial Resources</nciodm:CDISCSynonym>
                    <nciodm:CDISCDefinition>World Health Organization Disability Assessment Schedule 2.0 - 12 + 24-Item Interviewer - In the past 30 days: How much has your health been a drain on the financial resources of you or your family?</nciodm:CDISCDefinition>
                    <nciodm:PreferredTerm>WHODAS 2.0 12+24-item Version Interviewer-administered - Drain on Financial Resources</nciodm:PreferredTerm>
                </EnumeratedItem>
                <EnumeratedItem CodedValue="WD4D6_7" nciodm:ExtCodeID="C130893">
                    <nciodm:CDISCSynonym>WD4-Problem Did Your Family Have</nciodm:CDISCSynonym>
                    <nciodm:CDISCDefinition>World Health Organization Disability Assessment Schedule 2.0 - 12 + 24-Item Interviewer - In the past 30 days: How much of a problem did your family have because of your health problems?</nciodm:CDISCDefinition>
                    <nciodm:PreferredTerm>WHODAS 2.0 12+24-item Version Interviewer-administered - Problem Did Your Family Have</nciodm:PreferredTerm>
                </EnumeratedItem>
                <EnumeratedItem CodedValue="WD4D6_8" nciodm:ExtCodeID="C130894">
                    <nciodm:CDISCSynonym>WD4-Problem Doing Things for Relaxation</nciodm:CDISCSynonym>
                    <nciodm:CDISCDefinition>World Health Organization Disability Assessment Schedule 2.0 - 12 + 24-Item Interviewer - In the past 30 days: How much of a problem did you have in doing things by yourself for relaxation or pleasure?</nciodm:CDISCDefinition>
                    <nciodm:PreferredTerm>WHODAS 2.0 12+24-item Version Interviewer-administered - Problem Doing Things for Relaxation</nciodm:PreferredTerm>
                </EnumeratedItem>
                <EnumeratedItem CodedValue="WD4F5" nciodm:ExtCodeID="C130849">
                    <nciodm:CDISCSynonym>WD4-Living Situation at Interview</nciodm:CDISCSynonym>
                    <nciodm:CDISCDefinition>World Health Organization Disability Assessment Schedule 2.0 - 12 + 24-Item Interviewer - Living situation at time of interview.</nciodm:CDISCDefinition>
                    <nciodm:PreferredTerm>WHODAS 2.0 12+24-item Version Interviewer-administered - Living Situation at Interview</nciodm:PreferredTerm>
                </EnumeratedItem>
                <EnumeratedItem CodedValue="WD4H1" nciodm:ExtCodeID="C130895">
                    <nciodm:CDISCSynonym>WD4-How Many Days Difficulties Present</nciodm:CDISCSynonym>
                    <nciodm:CDISCDefinition>World Health Organization Disability Assessment Schedule 2.0 - 12 + 24-Item Interviewer - Overall, in the past 30 days, how many days were these difficulties present?</nciodm:CDISCDefinition>
                    <nciodm:PreferredTerm>WHODAS 2.0 12+24-item Version Interviewer-administered - How Many Days Difficulties Present</nciodm:PreferredTerm>
                </EnumeratedItem>
                <EnumeratedItem CodedValue="WD4H2" nciodm:ExtCodeID="C130896">
                    <nciodm:CDISCSynonym>WD4-Days Unable to Carry Out Activities</nciodm:CDISCSynonym>
                    <nciodm:CDISCDefinition>World Health Organization Disability Assessment Schedule 2.0 - 12 + 24-Item Interviewer - In the past 30 days, for how many days were you totally unable to carry out your usual activities or work because of any health condition?</nciodm:CDISCDefinition>
                    <nciodm:PreferredTerm>WHODAS 2.0 12+24-item Version Interviewer-administered - Days Unable to Carry Out Activities</nciodm:PreferredTerm>
                </EnumeratedItem>
                <EnumeratedItem CodedValue="WD4H3" nciodm:ExtCodeID="C130897">
                    <nciodm:CDISCSynonym>WD4-How Many Days Reduce Activities</nciodm:CDISCSynonym>
                    <nciodm:CDISCDefinition>World Health Organization Disability Assessment Schedule 2.0 - 12 + 24-Item Interviewer - In the past 30 days, not counting the days that you were totally unable, for how many days did you cut back or reduce your usual activities or work because of any health condition?</nciodm:CDISCDefinition>
                    <nciodm:PreferredTerm>WHODAS 2.0 12+24-item Version Interviewer-administered - How Many Days Reduce Activities</nciodm:PreferredTerm>
                </EnumeratedItem>
                <EnumeratedItem CodedValue="WD4S1" nciodm:ExtCodeID="C130855">
                    <nciodm:CDISCSynonym>WD4-Standing for Long Periods</nciodm:CDISCSynonym>
                    <nciodm:CDISCDefinition>World Health Organization Disability Assessment Schedule 2.0 - 12 + 24-Item Interviewer - In the past 30 days, how much difficulty did you have in: Standing for long periods such as 30 minutes?</nciodm:CDISCDefinition>
                    <nciodm:PreferredTerm>WHODAS 2.0 12+24-item Version Interviewer-administered - Standing for Long Periods</nciodm:PreferredTerm>
                </EnumeratedItem>
                <EnumeratedItem CodedValue="WD4S10" nciodm:ExtCodeID="C130864">
                    <nciodm:CDISCSynonym>WD4-Dealing With People You Do Not Know</nciodm:CDISCSynonym>
                    <nciodm:CDISCDefinition>World Health Organization Disability Assessment Schedule 2.0 - 12 + 24-Item Interviewer - In the past 30 days, how much difficulty did you have in: Dealing with people you do not know?</nciodm:CDISCDefinition>
                    <nciodm:PreferredTerm>WHODAS 2.0 12+24-item Version Interviewer-administered - Dealing With People You Do Not Know</nciodm:PreferredTerm>
                </EnumeratedItem>
                <EnumeratedItem CodedValue="WD4S11" nciodm:ExtCodeID="C130865">
                    <nciodm:CDISCSynonym>WD4-Maintaining a Fiendship</nciodm:CDISCSynonym>
                    <nciodm:CDISCDefinition>World Health Organization Disability Assessment Schedule 2.0 - 12 + 24-Item Interviewer - In the past 30 days, how much difficulty did you have in: Maintaining a friendship?</nciodm:CDISCDefinition>
                    <nciodm:PreferredTerm>WHODAS 2.0 12+24-item Version Interviewer-administered - Maintaining a Fiendship</nciodm:PreferredTerm>
                </EnumeratedItem>
                <EnumeratedItem CodedValue="WD4S12" nciodm:ExtCodeID="C130866">
                    <nciodm:CDISCSynonym>WD4-Your Day-to-Day Work</nciodm:CDISCSynonym>
                    <nciodm:CDISCDefinition>World Health Organization Disability Assessment Schedule 2.0 - 12 + 24-Item Interviewer - In the past 30 days, how much difficulty did you have in: Your day-to-day work?</nciodm:CDISCDefinition>
                    <nciodm:PreferredTerm>WHODAS 2.0 12+24-item Version Interviewer-administered - Your Day-to-Day Work</nciodm:PreferredTerm>
                </EnumeratedItem>
                <EnumeratedItem CodedValue="WD4S2" nciodm:ExtCodeID="C130856">
                    <nciodm:CDISCSynonym>WD4-Care of Household Responsibilities</nciodm:CDISCSynonym>
                    <nciodm:CDISCDefinition>World Health Organization Disability Assessment Schedule 2.0 - 12 + 24-Item Interviewer - In the past 30 days, how much difficulty did you have in: Taking care of your household responsibilities?</nciodm:CDISCDefinition>
                    <nciodm:PreferredTerm>WHODAS 2.0 12+24-item Version Interviewer-administered - Care of Household Responsibilities</nciodm:PreferredTerm>
                </EnumeratedItem>
                <EnumeratedItem CodedValue="WD4S3" nciodm:ExtCodeID="C130857">
                    <nciodm:CDISCSynonym>WD4-Learning a New Task</nciodm:CDISCSynonym>
                    <nciodm:CDISCDefinition>World Health Organization Disability Assessment Schedule 2.0 - 12 + 24-Item Interviewer - In the past 30 days, how much difficulty did you have in: Learning a new task, for example, learning how to get to a new place?</nciodm:CDISCDefinition>
                    <nciodm:PreferredTerm>WHODAS 2.0 12+24-item Version Interviewer-administered - Learning a New Task</nciodm:PreferredTerm>
                </EnumeratedItem>
                <EnumeratedItem CodedValue="WD4S4" nciodm:ExtCodeID="C130858">
                    <nciodm:CDISCSynonym>WD4-Problem Joining Community Activities</nciodm:CDISCSynonym>
                    <nciodm:CDISCDefinition>World Health Organization Disability Assessment Schedule 2.0 - 12 + 24-Item Interviewer - In the past 30 days, how much difficulty did you have in: Joining in community activities (for example, festivities, religious or other activities) in the same way as anyone else can?</nciodm:CDISCDefinition>
                    <nciodm:PreferredTerm>WHODAS 2.0 12+24-item Version Interviewer-administered - Problem Joining Community Activities</nciodm:PreferredTerm>
                </EnumeratedItem>
                <EnumeratedItem CodedValue="WD4S5" nciodm:ExtCodeID="C130859">
                    <nciodm:CDISCSynonym>WD4-Emotionally Affected by Health</nciodm:CDISCSynonym>
                    <nciodm:CDISCDefinition>World Health Organization Disability Assessment Schedule 2.0 - 12 + 24-Item Interviewer - In the past 30 days, how much difficulty did you have in: How much have you been emotionally affected by your health problems?</nciodm:CDISCDefinition>
                    <nciodm:PreferredTerm>WHODAS 2.0 12+24-item Version Interviewer-administered - Emotionally Affected by Health</nciodm:PreferredTerm>
                </EnumeratedItem>
                <EnumeratedItem CodedValue="WD4S6" nciodm:ExtCodeID="C130860">
                    <nciodm:CDISCSynonym>WD4-Concentrating for Ten Minutes</nciodm:CDISCSynonym>
                    <nciodm:CDISCDefinition>World Health Organization Disability Assessment Schedule 2.0 - 12 + 24-Item Interviewer - In the past 30 days, how much difficulty did you have in: Concentrating on doing something for ten minutes?</nciodm:CDISCDefinition>
                    <nciodm:PreferredTerm>WHODAS 2.0 12+24-item Version Interviewer-administered - Concentrating for Ten Minutes</nciodm:PreferredTerm>
                </EnumeratedItem>
                <EnumeratedItem CodedValue="WD4S7" nciodm:ExtCodeID="C130861">
                    <nciodm:CDISCSynonym>WD4-Walking a Long Distance</nciodm:CDISCSynonym>
                    <nciodm:CDISCDefinition>World Health Organization Disability Assessment Schedule 2.0 - 12 + 24-Item Interviewer - In the past 30 days, how much difficulty did you have in: Walking a long distance such as a kilometre [or equivalent]?</nciodm:CDISCDefinition>
                    <nciodm:PreferredTerm>WHODAS 2.0 12+24-item Version Interviewer-administered - Walking a Long Distance</nciodm:PreferredTerm>
                </EnumeratedItem>
                <EnumeratedItem CodedValue="WD4S8" nciodm:ExtCodeID="C130862">
                    <nciodm:CDISCSynonym>WD4-Washing Your Whole Body</nciodm:CDISCSynonym>
                    <nciodm:CDISCDefinition>World Health Organization Disability Assessment Schedule 2.0 - 12 + 24-Item Interviewer - In the past 30 days, how much difficulty did you have in: Washing your whole body?</nciodm:CDISCDefinition>
                    <nciodm:PreferredTerm>WHODAS 2.0 12+24-item Version Interviewer-administered - Washing Your Whole Body</nciodm:PreferredTerm>
                </EnumeratedItem>
                <EnumeratedItem CodedValue="WD4S9" nciodm:ExtCodeID="C130863">
                    <nciodm:CDISCSynonym>WD4-Getting Dressed</nciodm:CDISCSynonym>
                    <nciodm:CDISCDefinition>World Health Organization Disability Assessment Schedule 2.0 - 12 + 24-Item Interviewer - In the past 30 days, how much difficulty did you have in: Getting dressed?</nciodm:CDISCDefinition>
                    <nciodm:PreferredTerm>WHODAS 2.0 12+24-item Version Interviewer-administered - Getting Dressed</nciodm:PreferredTerm>
                </EnumeratedItem>
                <nciodm:CDISCSubmissionValue>WD4TC</nciodm:CDISCSubmissionValue>
                <nciodm:CDISCSynonym>World Health Organization Disability Assessment Schedule 2.0 - 12 + 24-Item Interviewer Questionnaire Test Code</nciodm:CDISCSynonym>
                <nciodm:PreferredTerm>CDISC Questionnaire WHODAS 2.0 12+24-item Version Interviewer-administered Test Code Terminology</nciodm:PreferredTerm>
            </CodeList>
            
