<CodeList xmlns="http://www.cdisc.org/ns/odm/v1.3" xmlns:nciodm="http://ncicb.nci.nih.gov/xml/odm/EVS/CDISC" xmlns:xs="http://www.w3.org/2001/XMLSchema-instance" OID="CL.C116103.NVTEST" Name="Nervous System Physiology Test Name" DataType="text" nciodm:ExtCodeID="C116103" nciodm:CodeListExtensible="Yes">
                <Description>
                    <TranslatedText xml:lang="en">Terminology relevant to the test names that describe nervous system physiology findings.</TranslatedText>
                </Description>
                <EnumeratedItem CodedValue="Boundary Shift Integral" nciodm:ExtCodeID="C114183">
                    <nciodm:CDISCSynonym>Boundary Shift Integral</nciodm:CDISCSynonym>
                    <nciodm:CDISCDefinition>A measurement of change in volume of an organ or anatomical feature as determined by a shift in tissue boundary over time.</nciodm:CDISCDefinition>
                    <nciodm:PreferredTerm>Boundary Shift Integral</nciodm:PreferredTerm>
                </EnumeratedItem>
                <EnumeratedItem CodedValue="N145 Latency" nciodm:ExtCodeID="C117886">
                    <nciodm:CDISCSynonym>N145 Latency</nciodm:CDISCSynonym>
                    <nciodm:CDISCDefinition>An assessment of the latency of the N145 or N2 wave of the visual evoked potential assessment waveform.</nciodm:CDISCDefinition>
                    <nciodm:PreferredTerm>N145 Latency</nciodm:PreferredTerm>
                </EnumeratedItem>
                <EnumeratedItem CodedValue="N75 Latency" nciodm:ExtCodeID="C130185">
                    <nciodm:CDISCSynonym>N1 Latency</nciodm:CDISCSynonym>
                    <nciodm:CDISCDefinition>An assessment of the latency of the N75 or N1 wave of the visual evoked potential assessment waveform.</nciodm:CDISCDefinition>
                    <nciodm:PreferredTerm>N75 Latency</nciodm:PreferredTerm>
                </EnumeratedItem>
                <EnumeratedItem CodedValue="P100 Amplitude" nciodm:ExtCodeID="C117887">
                    <nciodm:CDISCSynonym>P100 Amplitude</nciodm:CDISCSynonym>
                    <nciodm:CDISCDefinition>The magnitude, or height, of the P100 wave of the visual evoked potential assessment waveform. This assessment calculates the height from the N75 negative peak to the P100 positive peak.</nciodm:CDISCDefinition>
                    <nciodm:PreferredTerm>N75 to P100 Peak to Peak Amplitude</nciodm:PreferredTerm>
                </EnumeratedItem>
                <EnumeratedItem CodedValue="P100 Latency" nciodm:ExtCodeID="C117888">
                    <nciodm:CDISCSynonym>P100 Latency</nciodm:CDISCSynonym>
                    <nciodm:CDISCDefinition>An assessment of the latency of the P100 or P1 wave of the visual evoked potential assessment waveform.</nciodm:CDISCDefinition>
                    <nciodm:PreferredTerm>P100 Latency</nciodm:PreferredTerm>
                </EnumeratedItem>
                <EnumeratedItem CodedValue="Standard Uptake Value Ratio" nciodm:ExtCodeID="C116141">
                    <nciodm:CDISCSynonym>Standard Uptake Value Ratio</nciodm:CDISCSynonym>
                    <nciodm:CDISCDefinition>The ratio between the uptake or binding of a radiopharmaceutical agent in an anatomical region of interest and a context-defined reference anatomical region.</nciodm:CDISCDefinition>
                    <nciodm:PreferredTerm>Standard Uptake Value Ratio</nciodm:PreferredTerm>
                </EnumeratedItem>
                <EnumeratedItem CodedValue="Thickness" nciodm:ExtCodeID="C41145">
                    <nciodm:CDISCSynonym>Thickness</nciodm:CDISCSynonym>
                    <nciodm:CDISCDefinition>The dimension between two surfaces of an object, usually the smallest dimension as opposed to the width or the length.</nciodm:CDISCDefinition>
                    <nciodm:PreferredTerm>Thickness</nciodm:PreferredTerm>
                </EnumeratedItem>
                <EnumeratedItem CodedValue="Volume" nciodm:ExtCodeID="C25335">
                    <nciodm:CDISCSynonym>Volume</nciodm:CDISCSynonym>
                    <nciodm:CDISCDefinition>The amount of three dimensional space occupied by an object or the capacity of a space or container. (NCI)</nciodm:CDISCDefinition>
                    <nciodm:PreferredTerm>Volume</nciodm:PreferredTerm>
                </EnumeratedItem>
                <nciodm:CDISCSubmissionValue>NVTEST</nciodm:CDISCSubmissionValue>
                <nciodm:CDISCSynonym>Nervous System Physiology Test Name</nciodm:CDISCSynonym>
                <nciodm:PreferredTerm>CDISC SDTM Nervous System Physiology Test Name Terminology</nciodm:PreferredTerm>
            </CodeList>
            
