<CodeList xmlns="http://www.cdisc.org/ns/odm/v1.3" xmlns:nciodm="http://ncicb.nci.nih.gov/xml/odm/EVS/CDISC" xmlns:xs="http://www.w3.org/2001/XMLSchema-instance" OID="CL.C66787.TDIGRP" Name="Diagnosis Group Response" DataType="text" nciodm:ExtCodeID="C66787" nciodm:CodeListExtensible="Yes">
                <Description>
                    <TranslatedText xml:lang="en">A terminology codelist relevant to a grouping of individuals on the basis of a shared procedure or disease, or lack therof.</TranslatedText>
                </Description>
                <EnumeratedItem CodedValue="HEALTHY SUBJECTS" nciodm:ExtCodeID="C49651">
                    <nciodm:CDISCDefinition>An individual who is or becomes a participant in a research study and has no significant health-related issues. (NCI)</nciodm:CDISCDefinition>
                    <nciodm:PreferredTerm>Healthy Subject</nciodm:PreferredTerm>
                </EnumeratedItem>
                <nciodm:CDISCSubmissionValue>TDIGRP</nciodm:CDISCSubmissionValue>
                <nciodm:CDISCSynonym>Diagnosis Group Response</nciodm:CDISCSynonym>
                <nciodm:PreferredTerm>CDISC SDTM Diagnosis Group Terminology</nciodm:PreferredTerm>
            </CodeList>
            
