<CodeList xmlns="http://www.cdisc.org/ns/odm/v1.3" xmlns:nciodm="http://ncicb.nci.nih.gov/xml/odm/EVS/CDISC" xmlns:xs="http://www.w3.org/2001/XMLSchema-instance" OID="CL.C100155.SHORT-FORM MPQ-2 TEST" Name="Short-Form McGill Pain Questionnaire-2 Test Name" DataType="text" nciodm:ExtCodeID="C100155" nciodm:CodeListExtensible="No">
                <Description>
                    <TranslatedText xml:lang="en">Short-Form McGill Pain Questionnaire-2 test name.</TranslatedText>
                </Description>
                <EnumeratedItem CodedValue="SFMP2-Aching Pain" nciodm:ExtCodeID="C100856">
                    <nciodm:CDISCSynonym>SFMP2-Aching Pain</nciodm:CDISCSynonym>
                    <nciodm:CDISCDefinition>Short-Form McGill Pain Questionnaire-2 - Aching pain.</nciodm:CDISCDefinition>
                    <nciodm:PreferredTerm>SF-MPQ-2 - Aching Pain</nciodm:PreferredTerm>
                </EnumeratedItem>
                <EnumeratedItem CodedValue="SFMP2-Cold-Freezing Pain" nciodm:ExtCodeID="C100865">
                    <nciodm:CDISCSynonym>SFMP2-Cold-Freezing Pain</nciodm:CDISCSynonym>
                    <nciodm:CDISCDefinition>Short-Form McGill Pain Questionnaire-2 - Cold-freezing pain.</nciodm:CDISCDefinition>
                    <nciodm:PreferredTerm>SF-MPQ-2 - Cold-Freezing Pain</nciodm:PreferredTerm>
                </EnumeratedItem>
                <EnumeratedItem CodedValue="SFMP2-Cramping Pain" nciodm:ExtCodeID="C100853">
                    <nciodm:CDISCSynonym>SFMP2-Cramping Pain</nciodm:CDISCSynonym>
                    <nciodm:CDISCDefinition>Short-Form McGill Pain Questionnaire-2 - Cramping pain.</nciodm:CDISCDefinition>
                    <nciodm:PreferredTerm>SF-MPQ-2 - Cramping Pain</nciodm:PreferredTerm>
                </EnumeratedItem>
                <EnumeratedItem CodedValue="SFMP2-Electric-Shock Pain" nciodm:ExtCodeID="C100864">
                    <nciodm:CDISCSynonym>SFMP2-Electric-Shock Pain</nciodm:CDISCSynonym>
                    <nciodm:CDISCDefinition>Short-Form McGill Pain Questionnaire-2 - Electric-shock pain.</nciodm:CDISCDefinition>
                    <nciodm:PreferredTerm>SF-MPQ-2 - Electric-Shock Pain</nciodm:PreferredTerm>
                </EnumeratedItem>
                <EnumeratedItem CodedValue="SFMP2-Fearful" nciodm:ExtCodeID="C100862">
                    <nciodm:CDISCSynonym>SFMP2-Fearful</nciodm:CDISCSynonym>
                    <nciodm:CDISCDefinition>Short-Form McGill Pain Questionnaire-2 - Fearful.</nciodm:CDISCDefinition>
                    <nciodm:PreferredTerm>SF-MPQ-2 - Fearful</nciodm:PreferredTerm>
                </EnumeratedItem>
                <EnumeratedItem CodedValue="SFMP2-Gnawing Pain" nciodm:ExtCodeID="C100854">
                    <nciodm:CDISCSynonym>SFMP2-Gnawing Pain</nciodm:CDISCSynonym>
                    <nciodm:CDISCDefinition>Short-Form McGill Pain Questionnaire-2 - Gnawing pain.</nciodm:CDISCDefinition>
                    <nciodm:PreferredTerm>SF-MPQ-2 - Gnawing Pain</nciodm:PreferredTerm>
                </EnumeratedItem>
                <EnumeratedItem CodedValue="SFMP2-Heavy Pain" nciodm:ExtCodeID="C100857">
                    <nciodm:CDISCSynonym>SFMP2-Heavy Pain</nciodm:CDISCSynonym>
                    <nciodm:CDISCDefinition>Short-Form McGill Pain Questionnaire-2 - Heavy pain.</nciodm:CDISCDefinition>
                    <nciodm:PreferredTerm>SF-MPQ-2 - Heavy Pain</nciodm:PreferredTerm>
                </EnumeratedItem>
                <EnumeratedItem CodedValue="SFMP2-Hot-burning Pain" nciodm:ExtCodeID="C100855">
                    <nciodm:CDISCSynonym>SFMP2-Hot-burning Pain</nciodm:CDISCSynonym>
                    <nciodm:CDISCDefinition>Short-Form McGill Pain Questionnaire-2 - Hot-burning pain.</nciodm:CDISCDefinition>
                    <nciodm:PreferredTerm>SF-MPQ-2 - Hot-burning Pain</nciodm:PreferredTerm>
                </EnumeratedItem>
                <EnumeratedItem CodedValue="SFMP2-Itching" nciodm:ExtCodeID="C100868">
                    <nciodm:CDISCSynonym>SFMP2-Itching</nciodm:CDISCSynonym>
                    <nciodm:CDISCDefinition>Short-Form McGill Pain Questionnaire-2 - Itching.</nciodm:CDISCDefinition>
                    <nciodm:PreferredTerm>SF-MPQ-2 - Itching</nciodm:PreferredTerm>
                </EnumeratedItem>
                <EnumeratedItem CodedValue="SFMP2-Numbness" nciodm:ExtCodeID="C100869">
                    <nciodm:CDISCSynonym>SFMP2-Numbness</nciodm:CDISCSynonym>
                    <nciodm:CDISCDefinition>Short-Form McGill Pain Questionnaire-2 - Numbness.</nciodm:CDISCDefinition>
                    <nciodm:PreferredTerm>SF-MPQ-2 - Numbness</nciodm:PreferredTerm>
                </EnumeratedItem>
                <EnumeratedItem CodedValue="SFMP2-Pain Caused by Light Touch" nciodm:ExtCodeID="C100867">
                    <nciodm:CDISCSynonym>SFMP2-Pain Caused by Light Touch</nciodm:CDISCSynonym>
                    <nciodm:CDISCDefinition>Short-Form McGill Pain Questionnaire-2 - Pain caused by light touch.</nciodm:CDISCDefinition>
                    <nciodm:PreferredTerm>SF-MPQ-2 - Pain Caused by Light Touch</nciodm:PreferredTerm>
                </EnumeratedItem>
                <EnumeratedItem CodedValue="SFMP2-Piercing" nciodm:ExtCodeID="C100866">
                    <nciodm:CDISCSynonym>SFMP2-Piercing</nciodm:CDISCSynonym>
                    <nciodm:CDISCDefinition>Short-Form McGill Pain Questionnaire-2 - Piercing.</nciodm:CDISCDefinition>
                    <nciodm:PreferredTerm>SF-MPQ-2 - Piercing</nciodm:PreferredTerm>
                </EnumeratedItem>
                <EnumeratedItem CodedValue="SFMP2-Punishing-Cruel" nciodm:ExtCodeID="C100863">
                    <nciodm:CDISCSynonym>SFMP2-Punishing-Cruel</nciodm:CDISCSynonym>
                    <nciodm:CDISCDefinition>Short-Form McGill Pain Questionnaire-2 - Punishing-cruel.</nciodm:CDISCDefinition>
                    <nciodm:PreferredTerm>SF-MPQ-2 - Punishing-Cruel</nciodm:PreferredTerm>
                </EnumeratedItem>
                <EnumeratedItem CodedValue="SFMP2-Sharp Pain" nciodm:ExtCodeID="C100852">
                    <nciodm:CDISCSynonym>SFMP2-Sharp Pain</nciodm:CDISCSynonym>
                    <nciodm:CDISCDefinition>Short-Form McGill Pain Questionnaire-2 - Sharp pain.</nciodm:CDISCDefinition>
                    <nciodm:PreferredTerm>SF-MPQ-2 - Sharp Pain</nciodm:PreferredTerm>
                </EnumeratedItem>
                <EnumeratedItem CodedValue="SFMP2-Shooting Pain" nciodm:ExtCodeID="C100850">
                    <nciodm:CDISCSynonym>SFMP2-Shooting Pain</nciodm:CDISCSynonym>
                    <nciodm:CDISCDefinition>Short-Form McGill Pain Questionnaire-2 - Shooting pain.</nciodm:CDISCDefinition>
                    <nciodm:PreferredTerm>SF-MPQ-2 - Shooting Pain</nciodm:PreferredTerm>
                </EnumeratedItem>
                <EnumeratedItem CodedValue="SFMP2-Sickening" nciodm:ExtCodeID="C100861">
                    <nciodm:CDISCSynonym>SFMP2-Sickening</nciodm:CDISCSynonym>
                    <nciodm:CDISCDefinition>Short-Form McGill Pain Questionnaire-2 - Sickening.</nciodm:CDISCDefinition>
                    <nciodm:PreferredTerm>SF-MPQ-2 - Sickening</nciodm:PreferredTerm>
                </EnumeratedItem>
                <EnumeratedItem CodedValue="SFMP2-Splitting Pain" nciodm:ExtCodeID="C100859">
                    <nciodm:CDISCSynonym>SFMP2-Splitting Pain</nciodm:CDISCSynonym>
                    <nciodm:CDISCDefinition>Short-Form McGill Pain Questionnaire-2 - Splitting pain.</nciodm:CDISCDefinition>
                    <nciodm:PreferredTerm>SF-MPQ-2 - Splitting Pain</nciodm:PreferredTerm>
                </EnumeratedItem>
                <EnumeratedItem CodedValue="SFMP2-Stabbing Pain" nciodm:ExtCodeID="C100851">
                    <nciodm:CDISCSynonym>SFMP2-Stabbing Pain</nciodm:CDISCSynonym>
                    <nciodm:CDISCDefinition>Short-Form McGill Pain Questionnaire-2 - Stabbing pain.</nciodm:CDISCDefinition>
                    <nciodm:PreferredTerm>SF-MPQ-2 - Stabbing Pain</nciodm:PreferredTerm>
                </EnumeratedItem>
                <EnumeratedItem CodedValue="SFMP2-Tender" nciodm:ExtCodeID="C100858">
                    <nciodm:CDISCSynonym>SFMP2-Tender</nciodm:CDISCSynonym>
                    <nciodm:CDISCDefinition>Short-Form McGill Pain Questionnaire-2 - Tender.</nciodm:CDISCDefinition>
                    <nciodm:PreferredTerm>SF-MPQ-2 - Tender</nciodm:PreferredTerm>
                </EnumeratedItem>
                <EnumeratedItem CodedValue="SFMP2-Throbbing Pain" nciodm:ExtCodeID="C100849">
                    <nciodm:CDISCSynonym>SFMP2-Throbbing Pain</nciodm:CDISCSynonym>
                    <nciodm:CDISCDefinition>Short-Form McGill Pain Questionnaire-2 - Throbbing pain.</nciodm:CDISCDefinition>
                    <nciodm:PreferredTerm>SF-MPQ-2 - Throbbing Pain</nciodm:PreferredTerm>
                </EnumeratedItem>
                <EnumeratedItem CodedValue="SFMP2-Tingling or 'Pins and Needles'" nciodm:ExtCodeID="C101021">
                    <nciodm:CDISCSynonym>SFMP2-Tingling or 'Pins and Needles'</nciodm:CDISCSynonym>
                    <nciodm:CDISCDefinition>Short-Form McGill Pain Questionnaire-2 - Tingling or 'pins and needles'.</nciodm:CDISCDefinition>
                    <nciodm:PreferredTerm>SF-MPQ-2 - Tingling or 'Pins and Needles'</nciodm:PreferredTerm>
                </EnumeratedItem>
                <EnumeratedItem CodedValue="SFMP2-Tiring-Exhausting" nciodm:ExtCodeID="C100860">
                    <nciodm:CDISCSynonym>SFMP2-Tiring-Exhausting</nciodm:CDISCSynonym>
                    <nciodm:CDISCDefinition>Short-Form McGill Pain Questionnaire-2 - Tiring-exhausting.</nciodm:CDISCDefinition>
                    <nciodm:PreferredTerm>SF-MPQ-2 - Tiring-Exhausting</nciodm:PreferredTerm>
                </EnumeratedItem>
                <nciodm:CDISCSubmissionValue>SHORT-FORM MPQ-2 TEST</nciodm:CDISCSubmissionValue>
                <nciodm:CDISCSynonym>Short-Form McGill Pain Questionnaire-2 Test Name</nciodm:CDISCSynonym>
                <nciodm:PreferredTerm>CDISC Questionnaire Short-Form MPQ-2 Test Name Terminology</nciodm:PreferredTerm>
            </CodeList>
            
