<CodeList xmlns="http://www.cdisc.org/ns/odm/v1.3" xmlns:nciodm="http://ncicb.nci.nih.gov/xml/odm/EVS/CDISC" xmlns:xs="http://www.w3.org/2001/XMLSchema-instance" OID="CL.C119017.CTTIMIRS" Name="Coronary Thrombus TIMI Grade Responses" DataType="text" nciodm:ExtCodeID="C119017" nciodm:CodeListExtensible="No">
                <Description>
                    <TranslatedText xml:lang="en">A terminology codelist relevant to the Thrombolysis in Myocardial Infarction group grade for the description of coronary thrombus as visualized during angiography.</TranslatedText>
                </Description>
                <EnumeratedItem CodedValue="CORONARY THROMBUS TIMI GRADE 1" nciodm:ExtCodeID="C119583">
                    <nciodm:CDISCDefinition>Possible thrombus present - angiography demonstrates characteristics such as reduced contrast density, haziness, irregular lesion contour or a smooth convex 'meniscus' at the site of total occlusion suggestive but not diagnostic of thrombus. (Gibson, C. M., de Lemos, J. A., Murphy, S. A., Marble, S. J., McCabe, C. H., Cannon, C. P., Antman, E. M., Braunwald, E. Combination therapy with abciximab reduces angiographically evident thrombus in acute myocardial infarction: a TIMI 14 substudy Circulation. 2001;103(21):2550-4.)</nciodm:CDISCDefinition>
                    <nciodm:PreferredTerm>TIMI Coronary Thrombus Grade 1</nciodm:PreferredTerm>
                </EnumeratedItem>
                <EnumeratedItem CodedValue="CORONARY THROMBUS TIMI GRADE 2" nciodm:ExtCodeID="C119584">
                    <nciodm:CDISCDefinition>Small size definite thrombus, with greatest dimensions less than or equal to 1/2 vessel diameter. (Gibson, C. M., de Lemos, J. A., Murphy, S. A., Marble, S. J., McCabe, C. H., Cannon, C. P., Antman, E. M., Braunwald, E. Combination therapy with abciximab reduces angiographically evident thrombus in acute myocardial infarction: a TIMI 14 substudy Circulation. 2001;103(21):2550-4.)</nciodm:CDISCDefinition>
                    <nciodm:PreferredTerm>TIMI Coronary Thrombus Grade 2</nciodm:PreferredTerm>
                </EnumeratedItem>
                <EnumeratedItem CodedValue="CORONARY THROMBUS TIMI GRADE 3" nciodm:ExtCodeID="C119585">
                    <nciodm:CDISCDefinition>Moderate size definite thrombus, with greatest linear dimension greater than 1/2 but less than 2 vessel diameters. (Gibson, C. M., de Lemos, J. A., Murphy, S. A., Marble, S. J., McCabe, C. H., Cannon, C. P., Antman, E. M., Braunwald, E. Combination therapy with abciximab reduces angiographically evident thrombus in acute myocardial infarction: a TIMI 14 substudy Circulation. 2001;103(21):2550-4.)</nciodm:CDISCDefinition>
                    <nciodm:PreferredTerm>TIMI Coronary Thrombus Grade 3</nciodm:PreferredTerm>
                </EnumeratedItem>
                <EnumeratedItem CodedValue="CORONARY THROMBUS TIMI GRADE 4" nciodm:ExtCodeID="C119586">
                    <nciodm:CDISCDefinition>Large size definite thrombus, with the largest dimension greater than or equal to 2 vessel diameters. (Gibson, C. M., de Lemos, J. A., Murphy, S. A., Marble, S. J., McCabe, C. H., Cannon, C. P., Antman, E. M., Braunwald, E. Combination therapy with abciximab reduces angiographically evident thrombus in acute myocardial infarction: a TIMI 14 substudy Circulation. 2001;103(21):2550-4.)</nciodm:CDISCDefinition>
                    <nciodm:PreferredTerm>TIMI Coronary Thrombus Grade 4</nciodm:PreferredTerm>
                </EnumeratedItem>
                <EnumeratedItem CodedValue="CORONARY THROMBUS TIMI GRADE 5" nciodm:ExtCodeID="C119587">
                    <nciodm:CDISCDefinition>Total vessel occlusion. (Gibson, C. M., de Lemos, J. A., Murphy, S. A., Marble, S. J., McCabe, C. H., Cannon, C. P., Antman, E. M., Braunwald, E. Combination therapy with abciximab reduces angiographically evident thrombus in acute myocardial infarction: a TIMI 14 substudy Circulation. 2001;103(21):2550-4.)</nciodm:CDISCDefinition>
                    <nciodm:PreferredTerm>TIMI Coronary Thrombus Grade 5</nciodm:PreferredTerm>
                </EnumeratedItem>
                <nciodm:CDISCSubmissionValue>CTTIMIRS</nciodm:CDISCSubmissionValue>
                <nciodm:CDISCSynonym>Coronary Thrombus TIMI Grade Responses</nciodm:CDISCSynonym>
                <nciodm:PreferredTerm>CDISC SDTM Coronary Thrombus TIMI Grade Responses Terminology</nciodm:PreferredTerm>
            </CodeList>
            
