<CodeList xmlns="http://www.cdisc.org/ns/odm/v1.3" xmlns:nciodm="http://ncicb.nci.nih.gov/xml/odm/EVS/CDISC" xmlns:xs="http://www.w3.org/2001/XMLSchema-instance" OID="CL.C127264.CLTMDTYP" Name="Culture Medium Type" DataType="text" nciodm:ExtCodeID="C127264" nciodm:CodeListExtensible="Yes">
                <Description>
                    <TranslatedText xml:lang="en">Terminology relevant to the type of medium used to culture a specimen.</TranslatedText>
                </Description>
                <EnumeratedItem CodedValue="BLOOD AGAR" nciodm:ExtCodeID="C127517">
                    <nciodm:CDISCDefinition>A solid growth medium mainly consisting of peptones, sodium chloride, meat extracts, and mammalian blood, which is developed for the cultivation of fastidious organisms. The blood in the formulation promotes the presence and visualization of hemolytic reactions, enabling the detection and differentiation of hemolytic bacteria.</nciodm:CDISCDefinition>
                    <nciodm:PreferredTerm>Blood Agar Growth Medium</nciodm:PreferredTerm>
                </EnumeratedItem>
                <EnumeratedItem CodedValue="KIRCHNER MEDIUM" nciodm:ExtCodeID="C128949">
                    <nciodm:CDISCDefinition>A liquid growth medium mainly consisting of sodium dihydrogen phosphate, potassium dihydrogen phosphate, magnesium sulphate, trisodium citrate, L-asparagine and phenol red, which is developed for the culture and recovery of Mycobacteria.</nciodm:CDISCDefinition>
                    <nciodm:PreferredTerm>Kirchner Growth Medium</nciodm:PreferredTerm>
                </EnumeratedItem>
                <EnumeratedItem CodedValue="LOWENSTEIN JENSEN MEDIUM" nciodm:ExtCodeID="C85507">
                    <nciodm:CDISCSynonym>LJ medium</nciodm:CDISCSynonym>
                    <nciodm:CDISCDefinition>A growth medium mainly consisting of malachite green, glycerol, asparagine, coagulated eggs, and mineral salts which is developed especially for the cultivation of mycobacterium.</nciodm:CDISCDefinition>
                    <nciodm:PreferredTerm>Lowenstein-Jensen Medium</nciodm:PreferredTerm>
                </EnumeratedItem>
                <EnumeratedItem CodedValue="MB REDOX BROTH" nciodm:ExtCodeID="C128950">
                    <nciodm:CDISCDefinition>A liquid and selective growth medium that is modified based on the Kirchner medium by the addition of a mixture of antimicrobial agents (typically polymyxin B, amphotericin B, carbenicillin, and trimethoprim) and colorless tetrazolium salt as a growth indicator, which is developed for the cultivation of mycobacterium.</nciodm:CDISCDefinition>
                    <nciodm:PreferredTerm>MB Redox Broth Growth Medium</nciodm:PreferredTerm>
                </EnumeratedItem>
                <EnumeratedItem CodedValue="MIDDLEBROOK 7H10 AGAR" nciodm:ExtCodeID="C85509">
                    <nciodm:CDISCDefinition>A solid growth medium mainly consisting of oleic acid-albumin enrichment, glycerol, dextrose and inorganic compounds, which is developed especially for the primary and secondary cultivation of mycobacterium.</nciodm:CDISCDefinition>
                    <nciodm:PreferredTerm>Middlebrook 7H10 Growth Medium</nciodm:PreferredTerm>
                </EnumeratedItem>
                <EnumeratedItem CodedValue="MIDDLEBROOK 7H10S AGAR" nciodm:ExtCodeID="C127518">
                    <nciodm:CDISCSynonym>Middlebrook 7H10 Selective Agar</nciodm:CDISCSynonym>
                    <nciodm:CDISCDefinition>A solid and selective growth medium that is modified based on the Middlebrook 7H10 agar by the addition of four antimicrobial agents: polymyxin B, carbenicillin, amphotericin B and trimethoprim lactate.</nciodm:CDISCDefinition>
                    <nciodm:PreferredTerm>Middlebrook 7H10S Growth Medium</nciodm:PreferredTerm>
                </EnumeratedItem>
                <EnumeratedItem CodedValue="MIDDLEBROOK 7H11 AGAR" nciodm:ExtCodeID="C85510">
                    <nciodm:CDISCDefinition>A solid growth medium that is modified based on the Middlebrook 7H10 agar by the addition of pancreatic digest of casein.</nciodm:CDISCDefinition>
                    <nciodm:PreferredTerm>Middlebrook 7H11 Growth Medium</nciodm:PreferredTerm>
                </EnumeratedItem>
                <EnumeratedItem CodedValue="MIDDLEBROOK 7H11S AGAR" nciodm:ExtCodeID="C127519">
                    <nciodm:CDISCSynonym>Middlebrook 7H11 Selective Agar</nciodm:CDISCSynonym>
                    <nciodm:CDISCDefinition>A solid and selective growth medium that is modified based on the Middlebrook 7H11 agar by the addition of four antimicrobial agents: polymyxin B, carbenicillin, amphotericin B and trimethoprim lactate.</nciodm:CDISCDefinition>
                    <nciodm:PreferredTerm>Middlebrook 7H11S Growth Medium</nciodm:PreferredTerm>
                </EnumeratedItem>
                <EnumeratedItem CodedValue="MIDDLEBROOK 7H12 BROTH" nciodm:ExtCodeID="C127520">
                    <nciodm:CDISCDefinition>A liquid growth medium that is modified based on the Middlebrook 7H9 broth by the addition of bovine serum albumin, casein hydrolysate, catalase and 14C-labelled palmitic acid.</nciodm:CDISCDefinition>
                    <nciodm:PreferredTerm>Middlebrook 7H12 Growth Medium</nciodm:PreferredTerm>
                </EnumeratedItem>
                <EnumeratedItem CodedValue="MIDDLEBROOK 7H9 BROTH" nciodm:ExtCodeID="C127521">
                    <nciodm:CDISCDefinition>A liquid growth medium mainly consisting of albumin, glycerol, dextrose and inorganic compounds, which is developed especially for the primary and secondary cultivation of mycobacterium.</nciodm:CDISCDefinition>
                    <nciodm:PreferredTerm>Middlebrook 7H9 Growth Medium</nciodm:PreferredTerm>
                </EnumeratedItem>
                <nciodm:CDISCSubmissionValue>CLTMDTYP</nciodm:CDISCSubmissionValue>
                <nciodm:CDISCSynonym>Culture Medium Type</nciodm:CDISCSynonym>
                <nciodm:PreferredTerm>CDISC SDTM Culture Medium Type Terminology</nciodm:PreferredTerm>
            </CodeList>
            
