<CodeList xmlns="http://www.cdisc.org/ns/odm/v1.3" xmlns:nciodm="http://ncicb.nci.nih.gov/xml/odm/EVS/CDISC" xmlns:xs="http://www.w3.org/2001/XMLSchema-instance" OID="CL.C115408.SWLS01TC" Name="Satisfaction With Life Scale Questionnaire Test Code" DataType="text" nciodm:ExtCodeID="C115408" nciodm:CodeListExtensible="No">
                <Description>
                    <TranslatedText xml:lang="en">Satisfaction With Life Scale test code.</TranslatedText>
                </Description>
                <EnumeratedItem CodedValue="SWLS0101" nciodm:ExtCodeID="C115895">
                    <nciodm:CDISCSynonym>SWLS01-My Life is Close to Ideal</nciodm:CDISCSynonym>
                    <nciodm:CDISCDefinition>Satisfaction With Life Scale - In most ways my life is close to ideal.</nciodm:CDISCDefinition>
                    <nciodm:PreferredTerm>SWLS - My Life is Close to Ideal</nciodm:PreferredTerm>
                </EnumeratedItem>
                <EnumeratedItem CodedValue="SWLS0102" nciodm:ExtCodeID="C115896">
                    <nciodm:CDISCSynonym>SWLS01-My Life Conditions are Excellent</nciodm:CDISCSynonym>
                    <nciodm:CDISCDefinition>Satisfaction With Life Scale - The conditions of my life are excellent.</nciodm:CDISCDefinition>
                    <nciodm:PreferredTerm>SWLS - Life Conditions are Excellent</nciodm:PreferredTerm>
                </EnumeratedItem>
                <EnumeratedItem CodedValue="SWLS0103" nciodm:ExtCodeID="C115897">
                    <nciodm:CDISCSynonym>SWLS01-I Am Satisfied with My Life</nciodm:CDISCSynonym>
                    <nciodm:CDISCDefinition>Satisfaction With Life Scale - I am satisfied with my life.</nciodm:CDISCDefinition>
                    <nciodm:PreferredTerm>SWLS - Satisfied with My Life</nciodm:PreferredTerm>
                </EnumeratedItem>
                <EnumeratedItem CodedValue="SWLS0104" nciodm:ExtCodeID="C115898">
                    <nciodm:CDISCSynonym>SWLS01-Have Gotten Important Things</nciodm:CDISCSynonym>
                    <nciodm:CDISCDefinition>Satisfaction With Life Scale - So far I have gotten the important things I want in life.</nciodm:CDISCDefinition>
                    <nciodm:PreferredTerm>SWLS - Have Gotten Important Things</nciodm:PreferredTerm>
                </EnumeratedItem>
                <EnumeratedItem CodedValue="SWLS0105" nciodm:ExtCodeID="C115899">
                    <nciodm:CDISCSynonym>SWLS01-Live Life Over Change Nothing</nciodm:CDISCSynonym>
                    <nciodm:CDISCDefinition>Satisfaction With Life Scale - If I could live my life over, I would change almost nothing.</nciodm:CDISCDefinition>
                    <nciodm:PreferredTerm>SWLS - Live Life Over Change Nothing</nciodm:PreferredTerm>
                </EnumeratedItem>
                <nciodm:CDISCSubmissionValue>SWLS01TC</nciodm:CDISCSubmissionValue>
                <nciodm:CDISCSynonym>Satisfaction With Life Scale Questionnaire Test Code</nciodm:CDISCSynonym>
                <nciodm:PreferredTerm>CDISC Questionnaire SWLS Test Code Terminology</nciodm:PreferredTerm>
            </CodeList>
            
