<CodeList xmlns="http://www.cdisc.org/ns/odm/v1.3" xmlns:nciodm="http://ncicb.nci.nih.gov/xml/odm/EVS/CDISC" xmlns:xs="http://www.w3.org/2001/XMLSchema-instance" OID="CL.C115388.SIXMW1TC" Name="6 Minute Walk Functional Test Test Code" DataType="text" nciodm:ExtCodeID="C115388" nciodm:CodeListExtensible="No">
                <Description>
                    <TranslatedText xml:lang="en">6 Minute Walk Test test code.</TranslatedText>
                </Description>
                <EnumeratedItem CodedValue="SIXMW101" nciodm:ExtCodeID="C115800">
                    <nciodm:CDISCSynonym>SIXMW1-Distance at 1 Minute</nciodm:CDISCSynonym>
                    <nciodm:CDISCDefinition>6 Minute Walk Test - Distance at 1 minute.</nciodm:CDISCDefinition>
                    <nciodm:PreferredTerm>6MWT - Distance at 1 Minute</nciodm:PreferredTerm>
                </EnumeratedItem>
                <EnumeratedItem CodedValue="SIXMW102" nciodm:ExtCodeID="C115801">
                    <nciodm:CDISCSynonym>SIXMW1-Distance at 2 Minutes</nciodm:CDISCSynonym>
                    <nciodm:CDISCDefinition>6 Minute Walk Test - Distance at 2 minutes.</nciodm:CDISCDefinition>
                    <nciodm:PreferredTerm>6MWT - Distance at 2 Minutes</nciodm:PreferredTerm>
                </EnumeratedItem>
                <EnumeratedItem CodedValue="SIXMW103" nciodm:ExtCodeID="C115802">
                    <nciodm:CDISCSynonym>SIXMW1-Distance at 3 Minutes</nciodm:CDISCSynonym>
                    <nciodm:CDISCDefinition>6 Minute Walk Test - Distance at 3 minutes.</nciodm:CDISCDefinition>
                    <nciodm:PreferredTerm>6MWT - Distance at 3 Minutes</nciodm:PreferredTerm>
                </EnumeratedItem>
                <EnumeratedItem CodedValue="SIXMW104" nciodm:ExtCodeID="C115803">
                    <nciodm:CDISCSynonym>SIXMW1-Distance at 4 Minutes</nciodm:CDISCSynonym>
                    <nciodm:CDISCDefinition>6 Minute Walk Test - Distance at 4 minutes.</nciodm:CDISCDefinition>
                    <nciodm:PreferredTerm>6MWT - Distance at 4 Minutes</nciodm:PreferredTerm>
                </EnumeratedItem>
                <EnumeratedItem CodedValue="SIXMW105" nciodm:ExtCodeID="C115804">
                    <nciodm:CDISCSynonym>SIXMW1-Distance at 5 Minutes</nciodm:CDISCSynonym>
                    <nciodm:CDISCDefinition>6 Minute Walk Test - Distance at 5 minutes.</nciodm:CDISCDefinition>
                    <nciodm:PreferredTerm>6MWT - Distance at 5 Minutes</nciodm:PreferredTerm>
                </EnumeratedItem>
                <EnumeratedItem CodedValue="SIXMW106" nciodm:ExtCodeID="C115805">
                    <nciodm:CDISCSynonym>SIXMW1-Distance at 6 Minutes</nciodm:CDISCSynonym>
                    <nciodm:CDISCDefinition>6 Minute Walk Test - Distance at 6 minutes.</nciodm:CDISCDefinition>
                    <nciodm:PreferredTerm>6MWT - Distance at 6 Minutes</nciodm:PreferredTerm>
                </EnumeratedItem>
                <nciodm:CDISCSubmissionValue>SIXMW1TC</nciodm:CDISCSubmissionValue>
                <nciodm:CDISCSynonym>6 Minute Walk Functional Test Test Code</nciodm:CDISCSynonym>
                <nciodm:PreferredTerm>CDISC Functional Test 6MWT Test Code Terminology</nciodm:PreferredTerm>
            </CodeList>
            
