<CodeList xmlns="http://www.cdisc.org/ns/odm/v1.3" xmlns:nciodm="http://ncicb.nci.nih.gov/xml/odm/EVS/CDISC" xmlns:xs="http://www.w3.org/2001/XMLSchema-instance" OID="CL.C123655.AVLT-REY TESTCD" Name="Rey Auditory Verbal Learning Functional Test Test Code" DataType="text" nciodm:ExtCodeID="C123655" nciodm:CodeListExtensible="No">
                <Description>
                    <TranslatedText xml:lang="en">Rey Auditory Verbal Learning Test test code.</TranslatedText>
                </Description>
                <EnumeratedItem CodedValue="AVL0201" nciodm:ExtCodeID="C123683">
                    <nciodm:CDISCSynonym>AVL02-List A Word 1</nciodm:CDISCSynonym>
                    <nciodm:CDISCDefinition>Auditory Verbal Learning Test - List A, Word 1.</nciodm:CDISCDefinition>
                    <nciodm:PreferredTerm>AVLT-REY - List A Word 1</nciodm:PreferredTerm>
                </EnumeratedItem>
                <EnumeratedItem CodedValue="AVL0202" nciodm:ExtCodeID="C123684">
                    <nciodm:CDISCSynonym>AVL02-List A Word 2</nciodm:CDISCSynonym>
                    <nciodm:CDISCDefinition>Auditory Verbal Learning Test - List A, Word 2.</nciodm:CDISCDefinition>
                    <nciodm:PreferredTerm>AVLT-REY - List A Word 2</nciodm:PreferredTerm>
                </EnumeratedItem>
                <EnumeratedItem CodedValue="AVL0203" nciodm:ExtCodeID="C123685">
                    <nciodm:CDISCSynonym>AVL02-List A Word 3</nciodm:CDISCSynonym>
                    <nciodm:CDISCDefinition>Auditory Verbal Learning Test - List A, Word 3.</nciodm:CDISCDefinition>
                    <nciodm:PreferredTerm>AVLT-REY - List A Word 3</nciodm:PreferredTerm>
                </EnumeratedItem>
                <EnumeratedItem CodedValue="AVL0204" nciodm:ExtCodeID="C123686">
                    <nciodm:CDISCSynonym>AVL02-List A Word 4</nciodm:CDISCSynonym>
                    <nciodm:CDISCDefinition>Auditory Verbal Learning Test - List A, Word 4.</nciodm:CDISCDefinition>
                    <nciodm:PreferredTerm>AVLT-REY - List A Word 4</nciodm:PreferredTerm>
                </EnumeratedItem>
                <EnumeratedItem CodedValue="AVL0205" nciodm:ExtCodeID="C123687">
                    <nciodm:CDISCSynonym>AVL02-List A Word 5</nciodm:CDISCSynonym>
                    <nciodm:CDISCDefinition>Auditory Verbal Learning Test - List A, Word 5.</nciodm:CDISCDefinition>
                    <nciodm:PreferredTerm>AVLT-REY - List A Word 5</nciodm:PreferredTerm>
                </EnumeratedItem>
                <EnumeratedItem CodedValue="AVL0206" nciodm:ExtCodeID="C123688">
                    <nciodm:CDISCSynonym>AVL02-List A Word 6</nciodm:CDISCSynonym>
                    <nciodm:CDISCDefinition>Auditory Verbal Learning Test - List A, Word 6.</nciodm:CDISCDefinition>
                    <nciodm:PreferredTerm>AVLT-REY - List A Word 6</nciodm:PreferredTerm>
                </EnumeratedItem>
                <EnumeratedItem CodedValue="AVL0207" nciodm:ExtCodeID="C123689">
                    <nciodm:CDISCSynonym>AVL02-List A Word 7</nciodm:CDISCSynonym>
                    <nciodm:CDISCDefinition>Auditory Verbal Learning Test - List A, Word 7.</nciodm:CDISCDefinition>
                    <nciodm:PreferredTerm>AVLT-REY - List A Word 7</nciodm:PreferredTerm>
                </EnumeratedItem>
                <EnumeratedItem CodedValue="AVL0208" nciodm:ExtCodeID="C123690">
                    <nciodm:CDISCSynonym>AVL02-List A Word 8</nciodm:CDISCSynonym>
                    <nciodm:CDISCDefinition>Auditory Verbal Learning Test - List A, Word 8.</nciodm:CDISCDefinition>
                    <nciodm:PreferredTerm>AVLT-REY - List A Word 8</nciodm:PreferredTerm>
                </EnumeratedItem>
                <EnumeratedItem CodedValue="AVL0209" nciodm:ExtCodeID="C123691">
                    <nciodm:CDISCSynonym>AVL02-List A Word 9</nciodm:CDISCSynonym>
                    <nciodm:CDISCDefinition>Auditory Verbal Learning Test - List A, Word 9.</nciodm:CDISCDefinition>
                    <nciodm:PreferredTerm>AVLT-REY - List A Word 9</nciodm:PreferredTerm>
                </EnumeratedItem>
                <EnumeratedItem CodedValue="AVL0210" nciodm:ExtCodeID="C123692">
                    <nciodm:CDISCSynonym>AVL02-List A Word 10</nciodm:CDISCSynonym>
                    <nciodm:CDISCDefinition>Auditory Verbal Learning Test - List A, Word 10.</nciodm:CDISCDefinition>
                    <nciodm:PreferredTerm>AVLT-REY - List A Word 10</nciodm:PreferredTerm>
                </EnumeratedItem>
                <EnumeratedItem CodedValue="AVL0211" nciodm:ExtCodeID="C123693">
                    <nciodm:CDISCSynonym>AVL02-List A Word 11</nciodm:CDISCSynonym>
                    <nciodm:CDISCDefinition>Auditory Verbal Learning Test - List A, Word 11.</nciodm:CDISCDefinition>
                    <nciodm:PreferredTerm>AVLT-REY - List A Word 11</nciodm:PreferredTerm>
                </EnumeratedItem>
                <EnumeratedItem CodedValue="AVL0212" nciodm:ExtCodeID="C123694">
                    <nciodm:CDISCSynonym>AVL02-List A Word 12</nciodm:CDISCSynonym>
                    <nciodm:CDISCDefinition>Auditory Verbal Learning Test - List A, Word 12.</nciodm:CDISCDefinition>
                    <nciodm:PreferredTerm>AVLT-REY - List A Word 12</nciodm:PreferredTerm>
                </EnumeratedItem>
                <EnumeratedItem CodedValue="AVL0213" nciodm:ExtCodeID="C123695">
                    <nciodm:CDISCSynonym>AVL02-List A Word 13</nciodm:CDISCSynonym>
                    <nciodm:CDISCDefinition>Auditory Verbal Learning Test - List A, Word 13.</nciodm:CDISCDefinition>
                    <nciodm:PreferredTerm>AVLT-REY - List A Word 13</nciodm:PreferredTerm>
                </EnumeratedItem>
                <EnumeratedItem CodedValue="AVL0214" nciodm:ExtCodeID="C123696">
                    <nciodm:CDISCSynonym>AVL02-List A Word 14</nciodm:CDISCSynonym>
                    <nciodm:CDISCDefinition>Auditory Verbal Learning Test - List A, Word 14.</nciodm:CDISCDefinition>
                    <nciodm:PreferredTerm>AVLT-REY - List A Word 14</nciodm:PreferredTerm>
                </EnumeratedItem>
                <EnumeratedItem CodedValue="AVL0215" nciodm:ExtCodeID="C123697">
                    <nciodm:CDISCSynonym>AVL02-List A Word 15</nciodm:CDISCSynonym>
                    <nciodm:CDISCDefinition>Auditory Verbal Learning Test - List A, Word 15.</nciodm:CDISCDefinition>
                    <nciodm:PreferredTerm>AVLT-REY - List A Word 15</nciodm:PreferredTerm>
                </EnumeratedItem>
                <EnumeratedItem CodedValue="AVL0216" nciodm:ExtCodeID="C123698">
                    <nciodm:CDISCSynonym>AVL02-List A Total</nciodm:CDISCSynonym>
                    <nciodm:CDISCDefinition>Auditory Verbal Learning Test - The number of List A words recalled from a trial.</nciodm:CDISCDefinition>
                    <nciodm:PreferredTerm>AVLT-REY - List A Total</nciodm:PreferredTerm>
                </EnumeratedItem>
                <EnumeratedItem CodedValue="AVL0217" nciodm:ExtCodeID="C123699">
                    <nciodm:CDISCSynonym>AVL02-List A Intrusions</nciodm:CDISCSynonym>
                    <nciodm:CDISCDefinition>Auditory Verbal Learning Test - The number of List A intrusions while recalling from a trial.</nciodm:CDISCDefinition>
                    <nciodm:PreferredTerm>AVLT-REY - List A Intrusions</nciodm:PreferredTerm>
                </EnumeratedItem>
                <EnumeratedItem CodedValue="AVL0218" nciodm:ExtCodeID="C123700">
                    <nciodm:CDISCSynonym>AVL02-List B Word 1</nciodm:CDISCSynonym>
                    <nciodm:CDISCDefinition>Auditory Verbal Learning Test - List B, Word 1.</nciodm:CDISCDefinition>
                    <nciodm:PreferredTerm>AVLT-REY - List B Word 1</nciodm:PreferredTerm>
                </EnumeratedItem>
                <EnumeratedItem CodedValue="AVL0219" nciodm:ExtCodeID="C123701">
                    <nciodm:CDISCSynonym>AVL02-List B Word 2</nciodm:CDISCSynonym>
                    <nciodm:CDISCDefinition>Auditory Verbal Learning Test - List B, Word 2.</nciodm:CDISCDefinition>
                    <nciodm:PreferredTerm>AVLT-REY - List B Word 2</nciodm:PreferredTerm>
                </EnumeratedItem>
                <EnumeratedItem CodedValue="AVL0220" nciodm:ExtCodeID="C123702">
                    <nciodm:CDISCSynonym>AVL02-List B Word 3</nciodm:CDISCSynonym>
                    <nciodm:CDISCDefinition>Auditory Verbal Learning Test - List B, Word 3.</nciodm:CDISCDefinition>
                    <nciodm:PreferredTerm>AVLT-REY - List B Word 3</nciodm:PreferredTerm>
                </EnumeratedItem>
                <EnumeratedItem CodedValue="AVL0221" nciodm:ExtCodeID="C123703">
                    <nciodm:CDISCSynonym>AVL02-List B Word 4</nciodm:CDISCSynonym>
                    <nciodm:CDISCDefinition>Auditory Verbal Learning Test - List B, Word 4.</nciodm:CDISCDefinition>
                    <nciodm:PreferredTerm>AVLT-REY - List B Word 4</nciodm:PreferredTerm>
                </EnumeratedItem>
                <EnumeratedItem CodedValue="AVL0222" nciodm:ExtCodeID="C123704">
                    <nciodm:CDISCSynonym>AVL02-List B Word 5</nciodm:CDISCSynonym>
                    <nciodm:CDISCDefinition>Auditory Verbal Learning Test - List B, Word 5.</nciodm:CDISCDefinition>
                    <nciodm:PreferredTerm>AVLT-REY - List B Word 5</nciodm:PreferredTerm>
                </EnumeratedItem>
                <EnumeratedItem CodedValue="AVL0223" nciodm:ExtCodeID="C123705">
                    <nciodm:CDISCSynonym>AVL02-List B Word 6</nciodm:CDISCSynonym>
                    <nciodm:CDISCDefinition>Auditory Verbal Learning Test - List B, Word 6.</nciodm:CDISCDefinition>
                    <nciodm:PreferredTerm>AVLT-REY - List B Word 6</nciodm:PreferredTerm>
                </EnumeratedItem>
                <EnumeratedItem CodedValue="AVL0224" nciodm:ExtCodeID="C123706">
                    <nciodm:CDISCSynonym>AVL02-List B Word 7</nciodm:CDISCSynonym>
                    <nciodm:CDISCDefinition>Auditory Verbal Learning Test - List B, Word 7.</nciodm:CDISCDefinition>
                    <nciodm:PreferredTerm>AVLT-REY - List B Word 7</nciodm:PreferredTerm>
                </EnumeratedItem>
                <EnumeratedItem CodedValue="AVL0225" nciodm:ExtCodeID="C123707">
                    <nciodm:CDISCSynonym>AVL02-List B Word 8</nciodm:CDISCSynonym>
                    <nciodm:CDISCDefinition>Auditory Verbal Learning Test - List B, Word 8.</nciodm:CDISCDefinition>
                    <nciodm:PreferredTerm>AVLT-REY - List B Word 8</nciodm:PreferredTerm>
                </EnumeratedItem>
                <EnumeratedItem CodedValue="AVL0226" nciodm:ExtCodeID="C123708">
                    <nciodm:CDISCSynonym>AVL02-List B Word 9</nciodm:CDISCSynonym>
                    <nciodm:CDISCDefinition>Auditory Verbal Learning Test - List B, Word 9.</nciodm:CDISCDefinition>
                    <nciodm:PreferredTerm>AVLT-REY - List B Word 9</nciodm:PreferredTerm>
                </EnumeratedItem>
                <EnumeratedItem CodedValue="AVL0227" nciodm:ExtCodeID="C123709">
                    <nciodm:CDISCSynonym>AVL02-List B Word 10</nciodm:CDISCSynonym>
                    <nciodm:CDISCDefinition>Auditory Verbal Learning Test - List B, Word 10.</nciodm:CDISCDefinition>
                    <nciodm:PreferredTerm>AVLT-REY - List B Word 10</nciodm:PreferredTerm>
                </EnumeratedItem>
                <EnumeratedItem CodedValue="AVL0228" nciodm:ExtCodeID="C123710">
                    <nciodm:CDISCSynonym>AVL02-List B Word 11</nciodm:CDISCSynonym>
                    <nciodm:CDISCDefinition>Auditory Verbal Learning Test - List B, Word 11.</nciodm:CDISCDefinition>
                    <nciodm:PreferredTerm>AVLT-REY - List B Word 11</nciodm:PreferredTerm>
                </EnumeratedItem>
                <EnumeratedItem CodedValue="AVL0229" nciodm:ExtCodeID="C123711">
                    <nciodm:CDISCSynonym>AVL02-List B Word 12</nciodm:CDISCSynonym>
                    <nciodm:CDISCDefinition>Auditory Verbal Learning Test - List B, Word 12.</nciodm:CDISCDefinition>
                    <nciodm:PreferredTerm>AVLT-REY - List B Word 12</nciodm:PreferredTerm>
                </EnumeratedItem>
                <EnumeratedItem CodedValue="AVL0230" nciodm:ExtCodeID="C123712">
                    <nciodm:CDISCSynonym>AVL02-List B Word 13</nciodm:CDISCSynonym>
                    <nciodm:CDISCDefinition>Auditory Verbal Learning Test - List B, Word 13.</nciodm:CDISCDefinition>
                    <nciodm:PreferredTerm>AVLT-REY - List B Word 13</nciodm:PreferredTerm>
                </EnumeratedItem>
                <EnumeratedItem CodedValue="AVL0231" nciodm:ExtCodeID="C123713">
                    <nciodm:CDISCSynonym>AVL02-List B Word 14</nciodm:CDISCSynonym>
                    <nciodm:CDISCDefinition>Auditory Verbal Learning Test - List B, Word 14.</nciodm:CDISCDefinition>
                    <nciodm:PreferredTerm>AVLT-REY - List B Word 14</nciodm:PreferredTerm>
                </EnumeratedItem>
                <EnumeratedItem CodedValue="AVL0232" nciodm:ExtCodeID="C123714">
                    <nciodm:CDISCSynonym>AVL02-List B Word 15</nciodm:CDISCSynonym>
                    <nciodm:CDISCDefinition>Auditory Verbal Learning Test - List B, Word 15.</nciodm:CDISCDefinition>
                    <nciodm:PreferredTerm>AVLT-REY - List B Word 15</nciodm:PreferredTerm>
                </EnumeratedItem>
                <EnumeratedItem CodedValue="AVL0233" nciodm:ExtCodeID="C123715">
                    <nciodm:CDISCSynonym>AVL02- List B Total</nciodm:CDISCSynonym>
                    <nciodm:CDISCDefinition>Auditory Verbal Learning Test - The number of words recalled from List B trial.</nciodm:CDISCDefinition>
                    <nciodm:PreferredTerm>AVLT-REY - List B Total</nciodm:PreferredTerm>
                </EnumeratedItem>
                <EnumeratedItem CodedValue="AVL0234" nciodm:ExtCodeID="C123716">
                    <nciodm:CDISCSynonym>AVL02-List B Intrusions</nciodm:CDISCSynonym>
                    <nciodm:CDISCDefinition>Auditory Verbal Learning Test - The number of intrusions while recalling from List B trial.</nciodm:CDISCDefinition>
                    <nciodm:PreferredTerm>AVLT-REY - List B Intrusions</nciodm:PreferredTerm>
                </EnumeratedItem>
                <EnumeratedItem CodedValue="AVL0235" nciodm:ExtCodeID="C123717">
                    <nciodm:CDISCSynonym>AVL02-Recognition Total</nciodm:CDISCSynonym>
                    <nciodm:CDISCDefinition>Auditory Verbal Learning Test - The number of words correct on recognition test.</nciodm:CDISCDefinition>
                    <nciodm:PreferredTerm>AVLT-REY - Recognition Total</nciodm:PreferredTerm>
                </EnumeratedItem>
                <EnumeratedItem CodedValue="AVL0236" nciodm:ExtCodeID="C123718">
                    <nciodm:CDISCSynonym>AVL02-Recognition Intrusions</nciodm:CDISCSynonym>
                    <nciodm:CDISCDefinition>Auditory Verbal Learning Test - The number of intrusions on recognition test.</nciodm:CDISCDefinition>
                    <nciodm:PreferredTerm>AVLT-REY - Recognition Intrusions</nciodm:PreferredTerm>
                </EnumeratedItem>
                <nciodm:CDISCSubmissionValue>AVLT-REY TESTCD</nciodm:CDISCSubmissionValue>
                <nciodm:CDISCSynonym>Rey Auditory Verbal Learning Functional Test Test Code</nciodm:CDISCSynonym>
                <nciodm:PreferredTerm>CDISC Functional Test AVLT-REY Test Code Terminology</nciodm:PreferredTerm>
            </CodeList>
            
