<CodeList xmlns="http://www.cdisc.org/ns/odm/v1.3" xmlns:nciodm="http://ncicb.nci.nih.gov/xml/odm/EVS/CDISC" xmlns:xs="http://www.w3.org/2001/XMLSchema-instance" OID="CL.C124301.MHEDTTYP" Name="Medical History Event Date Type" DataType="text" nciodm:ExtCodeID="C124301" nciodm:CodeListExtensible="Yes">
                <Description>
                    <TranslatedText xml:lang="en">Terminology relevant to the classification of the medical condition or event by which MHSTDTC is defined.</TranslatedText>
                </Description>
                <EnumeratedItem CodedValue="DIAGNOSIS" nciodm:ExtCodeID="C15220">
                    <nciodm:CDISCSynonym>Diagnostic</nciodm:CDISCSynonym>
                    <nciodm:CDISCDefinition>The investigation, analysis and recognition of the presence and nature of disease, condition, or injury from expressed signs and symptoms; also, the scientific determination of any kind; the concise results or summary of such an investigation. (NCI)</nciodm:CDISCDefinition>
                    <nciodm:PreferredTerm>Diagnosis</nciodm:PreferredTerm>
                </EnumeratedItem>
                <EnumeratedItem CodedValue="EPISODE" nciodm:ExtCodeID="C75539">
                    <nciodm:CDISCDefinition>A noteworthy happening that is distinctive in a series of related events.</nciodm:CDISCDefinition>
                    <nciodm:PreferredTerm>Episode</nciodm:PreferredTerm>
                </EnumeratedItem>
                <EnumeratedItem CodedValue="EXACERBATION" nciodm:ExtCodeID="C124138">
                    <nciodm:CDISCDefinition>An increase in frequency and/or worsening of a symptom, condition, or disease.</nciodm:CDISCDefinition>
                    <nciodm:PreferredTerm>Exacerbation</nciodm:PreferredTerm>
                </EnumeratedItem>
                <EnumeratedItem CodedValue="SYMPTOM ONSET" nciodm:ExtCodeID="C124353">
                    <nciodm:CDISCDefinition>The point at which the symptoms began or were first noted.</nciodm:CDISCDefinition>
                    <nciodm:PreferredTerm>Symptom Onset</nciodm:PreferredTerm>
                </EnumeratedItem>
                <nciodm:CDISCSubmissionValue>MHEDTTYP</nciodm:CDISCSubmissionValue>
                <nciodm:CDISCSynonym>Medical History Event Date Type</nciodm:CDISCSynonym>
                <nciodm:PreferredTerm>CDISC SDTM Medical History Event Date Type Terminology</nciodm:PreferredTerm>
            </CodeList>
            
