<CodeList xmlns="http://www.cdisc.org/ns/odm/v1.3" xmlns:nciodm="http://ncicb.nci.nih.gov/xml/odm/EVS/CDISC" xmlns:xs="http://www.w3.org/2001/XMLSchema-instance" OID="CL.C147547.TSCC01TN" Name="Trauma Symptom Checklist for Children Questionnaire Test Name" DataType="text" nciodm:ExtCodeID="C147547" nciodm:CodeListExtensible="No">
                <Description>
                    <TranslatedText xml:lang="en">Trauma Symptom Checklist for Children test name.</TranslatedText>
                </Description>
                <EnumeratedItem CodedValue="TSCC01-Afraid Something Bad Might Happen" nciodm:ExtCodeID="C147700">
                    <nciodm:CDISCSynonym>TSCC01-Afraid Something Bad Might Happen</nciodm:CDISCSynonym>
                    <nciodm:CDISCDefinition>Trauma Symptom Checklist for Children - Feeling afraid something bad might happen.</nciodm:CDISCDefinition>
                    <nciodm:PreferredTerm>TSCC - Afraid Something Bad Might Happen</nciodm:PreferredTerm>
                </EnumeratedItem>
                <EnumeratedItem CodedValue="TSCC01-Arguing Too Much" nciodm:ExtCodeID="C147704">
                    <nciodm:CDISCSynonym>TSCC01-Arguing Too Much</nciodm:CDISCSynonym>
                    <nciodm:CDISCDefinition>Trauma Symptom Checklist for Children - Arguing too much.</nciodm:CDISCDefinition>
                    <nciodm:PreferredTerm>TSCC - Arguing Too Much</nciodm:PreferredTerm>
                </EnumeratedItem>
                <EnumeratedItem CodedValue="TSCC01-Bad Dreams or Nightmares" nciodm:ExtCodeID="C147699">
                    <nciodm:CDISCSynonym>TSCC01-Bad Dreams or Nightmares</nciodm:CDISCSynonym>
                    <nciodm:CDISCDefinition>Trauma Symptom Checklist for Children - Bad dreams or nightmares.</nciodm:CDISCDefinition>
                    <nciodm:PreferredTerm>TSCC - Bad Dreams or Nightmares</nciodm:PreferredTerm>
                </EnumeratedItem>
                <EnumeratedItem CodedValue="TSCC01-Being Afraid of the Dark" nciodm:ExtCodeID="C147737">
                    <nciodm:CDISCSynonym>TSCC01-Being Afraid of the Dark</nciodm:CDISCSynonym>
                    <nciodm:CDISCDefinition>Trauma Symptom Checklist for Children - Being afraid of the dark.</nciodm:CDISCDefinition>
                    <nciodm:PreferredTerm>TSCC - Being Afraid of the Dark</nciodm:PreferredTerm>
                </EnumeratedItem>
                <EnumeratedItem CodedValue="TSCC01-Can't Stop Thinking About Sex" nciodm:ExtCodeID="C147745">
                    <nciodm:CDISCSynonym>TSCC01-Can't Stop Thinking About Sex</nciodm:CDISCSynonym>
                    <nciodm:CDISCDefinition>Trauma Symptom Checklist for Children - Can't stop thinking about sex.</nciodm:CDISCDefinition>
                    <nciodm:PreferredTerm>TSCC - Can't Stop Thinking About Sex</nciodm:PreferredTerm>
                </EnumeratedItem>
                <EnumeratedItem CodedValue="TSCC01-Can't Stop Thinking Something Bad" nciodm:ExtCodeID="C147733">
                    <nciodm:CDISCSynonym>TSCC01-Can't Stop Thinking Something Bad</nciodm:CDISCSynonym>
                    <nciodm:CDISCDefinition>Trauma Symptom Checklist for Children - Can't stop thinking about something bad that happened to me.</nciodm:CDISCDefinition>
                    <nciodm:PreferredTerm>TSCC - Can't Stop Thinking Something Bad</nciodm:PreferredTerm>
                </EnumeratedItem>
                <EnumeratedItem CodedValue="TSCC01-Crying" nciodm:ExtCodeID="C147712">
                    <nciodm:CDISCSynonym>TSCC01-Crying</nciodm:CDISCSynonym>
                    <nciodm:CDISCDefinition>Trauma Symptom Checklist for Children - Crying.</nciodm:CDISCDefinition>
                    <nciodm:PreferredTerm>TSCC - Crying</nciodm:PreferredTerm>
                </EnumeratedItem>
                <EnumeratedItem CodedValue="TSCC01-Daydreaming" nciodm:ExtCodeID="C147751">
                    <nciodm:CDISCSynonym>TSCC01-Daydreaming</nciodm:CDISCSynonym>
                    <nciodm:CDISCDefinition>Trauma Symptom Checklist for Children - Daydreaming.</nciodm:CDISCDefinition>
                    <nciodm:PreferredTerm>TSCC - Daydreaming</nciodm:PreferredTerm>
                </EnumeratedItem>
                <EnumeratedItem CodedValue="TSCC01-Feeling Afraid" nciodm:ExtCodeID="C147731">
                    <nciodm:CDISCSynonym>TSCC01-Feeling Afraid</nciodm:CDISCSynonym>
                    <nciodm:CDISCDefinition>Trauma Symptom Checklist for Children - Feeling afraid.</nciodm:CDISCDefinition>
                    <nciodm:PreferredTerm>TSCC - Feeling Afraid</nciodm:PreferredTerm>
                </EnumeratedItem>
                <EnumeratedItem CodedValue="TSCC01-Feeling Afraid Somebody Kill Me" nciodm:ExtCodeID="C147748">
                    <nciodm:CDISCSynonym>TSCC01-Feeling Afraid Somebody Kill Me</nciodm:CDISCSynonym>
                    <nciodm:CDISCDefinition>Trauma Symptom Checklist for Children - Feeling afraid somebody will kill me.</nciodm:CDISCDefinition>
                    <nciodm:PreferredTerm>TSCC - Feeling Afraid Somebody Kill Me</nciodm:PreferredTerm>
                </EnumeratedItem>
                <EnumeratedItem CodedValue="TSCC01-Feeling Dizzy" nciodm:ExtCodeID="C147716">
                    <nciodm:CDISCSynonym>TSCC01-Feeling Dizzy</nciodm:CDISCSynonym>
                    <nciodm:CDISCDefinition>Trauma Symptom Checklist for Children - Feeling dizzy.</nciodm:CDISCDefinition>
                    <nciodm:PreferredTerm>TSCC - Feeling Dizzy</nciodm:PreferredTerm>
                </EnumeratedItem>
                <EnumeratedItem CodedValue="TSCC01-Feeling Like Did Something Wrong" nciodm:ExtCodeID="C147726">
                    <nciodm:CDISCSynonym>TSCC01-Feeling Like Did Something Wrong</nciodm:CDISCSynonym>
                    <nciodm:CDISCDefinition>Trauma Symptom Checklist for Children - Feeling like I did something wrong.</nciodm:CDISCDefinition>
                    <nciodm:PreferredTerm>TSCC - Feeling Like Did Something Wrong</nciodm:PreferredTerm>
                </EnumeratedItem>
                <EnumeratedItem CodedValue="TSCC01-Feeling Like I Hate People" nciodm:ExtCodeID="C147744">
                    <nciodm:CDISCSynonym>TSCC01-Feeling Like I Hate People</nciodm:CDISCSynonym>
                    <nciodm:CDISCDefinition>Trauma Symptom Checklist for Children - Feeling like I hate people.</nciodm:CDISCDefinition>
                    <nciodm:PreferredTerm>TSCC - Feeling Like I Hate People</nciodm:PreferredTerm>
                </EnumeratedItem>
                <EnumeratedItem CodedValue="TSCC01-Feeling Like I'm Not in My Body" nciodm:ExtCodeID="C147729">
                    <nciodm:CDISCSynonym>TSCC01-Feeling Like I'm Not in My Body</nciodm:CDISCSynonym>
                    <nciodm:CDISCDefinition>Trauma Symptom Checklist for Children - Feeling like I'm not in my body.</nciodm:CDISCDefinition>
                    <nciodm:PreferredTerm>TSCC - Feeling Like I'm Not in My Body</nciodm:PreferredTerm>
                </EnumeratedItem>
                <EnumeratedItem CodedValue="TSCC01-Feeling Like Nobody Likes Me" nciodm:ExtCodeID="C147740">
                    <nciodm:CDISCSynonym>TSCC01-Feeling Like Nobody Likes Me</nciodm:CDISCSynonym>
                    <nciodm:CDISCDefinition>Trauma Symptom Checklist for Children - Feeling like nobody likes me.</nciodm:CDISCDefinition>
                    <nciodm:PreferredTerm>TSCC - Feeling Like Nobody Likes Me</nciodm:PreferredTerm>
                </EnumeratedItem>
                <EnumeratedItem CodedValue="TSCC01-Feeling Like Things Aren't Real" nciodm:ExtCodeID="C147727">
                    <nciodm:CDISCSynonym>TSCC01-Feeling Like Things Aren't Real</nciodm:CDISCSynonym>
                    <nciodm:CDISCDefinition>Trauma Symptom Checklist for Children - Feeling like things aren't real.</nciodm:CDISCDefinition>
                    <nciodm:PreferredTerm>TSCC - Feeling Like Things Aren't Real</nciodm:PreferredTerm>
                </EnumeratedItem>
                <EnumeratedItem CodedValue="TSCC01-Feeling Lonely" nciodm:ExtCodeID="C147705">
                    <nciodm:CDISCSynonym>TSCC01-Feeling Lonely</nciodm:CDISCSynonym>
                    <nciodm:CDISCDefinition>Trauma Symptom Checklist for Children - Feeling lonely.</nciodm:CDISCDefinition>
                    <nciodm:PreferredTerm>TSCC - Feeling Lonely</nciodm:PreferredTerm>
                </EnumeratedItem>
                <EnumeratedItem CodedValue="TSCC01-Feeling Mad" nciodm:ExtCodeID="C147747">
                    <nciodm:CDISCSynonym>TSCC01-Feeling Mad</nciodm:CDISCSynonym>
                    <nciodm:CDISCDefinition>Trauma Symptom Checklist for Children - Feeling mad.</nciodm:CDISCDefinition>
                    <nciodm:PreferredTerm>TSCC - Feeling Mad</nciodm:PreferredTerm>
                </EnumeratedItem>
                <EnumeratedItem CodedValue="TSCC01-Feeling Mean" nciodm:ExtCodeID="C147735">
                    <nciodm:CDISCSynonym>TSCC01-Feeling Mean</nciodm:CDISCSynonym>
                    <nciodm:CDISCDefinition>Trauma Symptom Checklist for Children - Feeling mean.</nciodm:CDISCDefinition>
                    <nciodm:PreferredTerm>TSCC - Feeling Mean</nciodm:PreferredTerm>
                </EnumeratedItem>
                <EnumeratedItem CodedValue="TSCC01-Feeling Nervous or Jumpy Inside" nciodm:ExtCodeID="C147730">
                    <nciodm:CDISCSynonym>TSCC01-Feeling Nervous or Jumpy Inside</nciodm:CDISCSynonym>
                    <nciodm:CDISCDefinition>Trauma Symptom Checklist for Children - Feeling nervous or jumpy inside.</nciodm:CDISCDefinition>
                    <nciodm:PreferredTerm>TSCC - Feeling Nervous or Jumpy Inside</nciodm:PreferredTerm>
                </EnumeratedItem>
                <EnumeratedItem CodedValue="TSCC01-Feeling Sad or Unhappy" nciodm:ExtCodeID="C147707">
                    <nciodm:CDISCSynonym>TSCC01-Feeling Sad or Unhappy</nciodm:CDISCSynonym>
                    <nciodm:CDISCDefinition>Trauma Symptom Checklist for Children - Feeling sad or unhappy.</nciodm:CDISCDefinition>
                    <nciodm:PreferredTerm>TSCC - Feeling Sad or Unhappy</nciodm:PreferredTerm>
                </EnumeratedItem>
                <EnumeratedItem CodedValue="TSCC01-Feeling Scared of Men" nciodm:ExtCodeID="C147722">
                    <nciodm:CDISCSynonym>TSCC01-Feeling Scared of Men</nciodm:CDISCSynonym>
                    <nciodm:CDISCDefinition>Trauma Symptom Checklist for Children - Feeling scared of men.</nciodm:CDISCDefinition>
                    <nciodm:PreferredTerm>TSCC - Feeling Scared of Men</nciodm:PreferredTerm>
                </EnumeratedItem>
                <EnumeratedItem CodedValue="TSCC01-Feeling Scared of Women" nciodm:ExtCodeID="C147723">
                    <nciodm:CDISCSynonym>TSCC01-Feeling Scared of Women</nciodm:CDISCSynonym>
                    <nciodm:CDISCDefinition>Trauma Symptom Checklist for Children - Feeling scared of women.</nciodm:CDISCDefinition>
                    <nciodm:PreferredTerm>TSCC - Feeling Scared of Women</nciodm:PreferredTerm>
                </EnumeratedItem>
                <EnumeratedItem CodedValue="TSCC01-Feeling Stupid or Bad" nciodm:ExtCodeID="C147725">
                    <nciodm:CDISCSynonym>TSCC01-Feeling Stupid or Bad</nciodm:CDISCSynonym>
                    <nciodm:CDISCDefinition>Trauma Symptom Checklist for Children - Feeling stupid or bad.</nciodm:CDISCDefinition>
                    <nciodm:PreferredTerm>TSCC - Feeling Stupid or Bad</nciodm:PreferredTerm>
                </EnumeratedItem>
                <EnumeratedItem CodedValue="TSCC01-Forgetting Things" nciodm:ExtCodeID="C147728">
                    <nciodm:CDISCSynonym>TSCC01-Forgetting Things</nciodm:CDISCSynonym>
                    <nciodm:CDISCDefinition>Trauma Symptom Checklist for Children - Forgetting things, can't remember things.</nciodm:CDISCDefinition>
                    <nciodm:PreferredTerm>TSCC - Forgetting Things</nciodm:PreferredTerm>
                </EnumeratedItem>
                <EnumeratedItem CodedValue="TSCC01-Getting Into Fights" nciodm:ExtCodeID="C147734">
                    <nciodm:CDISCSynonym>TSCC01-Getting Into Fights</nciodm:CDISCSynonym>
                    <nciodm:CDISCDefinition>Trauma Symptom Checklist for Children - Getting into fights.</nciodm:CDISCDefinition>
                    <nciodm:PreferredTerm>TSCC - Getting Into Fights</nciodm:PreferredTerm>
                </EnumeratedItem>
                <EnumeratedItem CodedValue="TSCC01-Getting Mad and Can't Calm Down" nciodm:ExtCodeID="C147714">
                    <nciodm:CDISCSynonym>TSCC01-Getting Mad and Can't Calm Down</nciodm:CDISCSynonym>
                    <nciodm:CDISCDefinition>Trauma Symptom Checklist for Children - Getting mad and can't calm down.</nciodm:CDISCDefinition>
                    <nciodm:PreferredTerm>TSCC - Getting Mad and Can't Calm Down</nciodm:PreferredTerm>
                </EnumeratedItem>
                <EnumeratedItem CodedValue="TSCC01-Getting Scared All of Sudden" nciodm:ExtCodeID="C147713">
                    <nciodm:CDISCSynonym>TSCC01-Getting Scared All of Sudden</nciodm:CDISCSynonym>
                    <nciodm:CDISCDefinition>Trauma Symptom Checklist for Children - Getting scared all of a sudden and don't know why.</nciodm:CDISCDefinition>
                    <nciodm:PreferredTerm>TSCC - Getting Scared All of Sudden</nciodm:PreferredTerm>
                </EnumeratedItem>
                <EnumeratedItem CodedValue="TSCC01-Getting Upset People Talk Sex" nciodm:ExtCodeID="C147752">
                    <nciodm:CDISCSynonym>TSCC01-Getting Upset People Talk Sex</nciodm:CDISCSynonym>
                    <nciodm:CDISCDefinition>Trauma Symptom Checklist for Children - Getting upset when people talk about sex.</nciodm:CDISCDefinition>
                    <nciodm:PreferredTerm>TSCC - Getting Upset People Talk Sex</nciodm:PreferredTerm>
                </EnumeratedItem>
                <EnumeratedItem CodedValue="TSCC01-Going Away in My Mind" nciodm:ExtCodeID="C147709">
                    <nciodm:CDISCSynonym>TSCC01-Going Away in My Mind</nciodm:CDISCSynonym>
                    <nciodm:CDISCDefinition>Trauma Symptom Checklist for Children - Going away in my mind, trying not to think.</nciodm:CDISCDefinition>
                    <nciodm:PreferredTerm>TSCC - Going Away in My Mind</nciodm:PreferredTerm>
                </EnumeratedItem>
                <EnumeratedItem CodedValue="TSCC01-Having Sex Feelings in My Body" nciodm:ExtCodeID="C147742">
                    <nciodm:CDISCSynonym>TSCC01-Having Sex Feelings in My Body</nciodm:CDISCSynonym>
                    <nciodm:CDISCDefinition>Trauma Symptom Checklist for Children - Having sex feelings in my body.</nciodm:CDISCDefinition>
                    <nciodm:PreferredTerm>TSCC - Having Sex Feelings in My Body</nciodm:PreferredTerm>
                </EnumeratedItem>
                <EnumeratedItem CodedValue="TSCC01-My Mind Going Empty or Blank" nciodm:ExtCodeID="C147743">
                    <nciodm:CDISCSynonym>TSCC01-My Mind Going Empty or Blank</nciodm:CDISCSynonym>
                    <nciodm:CDISCDefinition>Trauma Symptom Checklist for Children - My mind going empty or blank.</nciodm:CDISCDefinition>
                    <nciodm:PreferredTerm>TSCC - My Mind Going Empty or Blank</nciodm:PreferredTerm>
                </EnumeratedItem>
                <EnumeratedItem CodedValue="TSCC01-Not Trusting People Because Sex" nciodm:ExtCodeID="C147732">
                    <nciodm:CDISCSynonym>TSCC01-Not Trusting People Because Sex</nciodm:CDISCSynonym>
                    <nciodm:CDISCDefinition>Trauma Symptom Checklist for Children - Not trusting people because they might want sex.</nciodm:CDISCDefinition>
                    <nciodm:PreferredTerm>TSCC - Not Trusting People Because Sex</nciodm:PreferredTerm>
                </EnumeratedItem>
                <EnumeratedItem CodedValue="TSCC01-Pretending I am Someone Else" nciodm:ExtCodeID="C147703">
                    <nciodm:CDISCSynonym>TSCC01-Pretending I am Someone Else</nciodm:CDISCSynonym>
                    <nciodm:CDISCDefinition>Trauma Symptom Checklist for Children - Pretending I am someone else.</nciodm:CDISCDefinition>
                    <nciodm:PreferredTerm>TSCC - Pretending I am Someone Else</nciodm:PreferredTerm>
                </EnumeratedItem>
                <EnumeratedItem CodedValue="TSCC01-Pretending I'm Somewhere Else" nciodm:ExtCodeID="C147736">
                    <nciodm:CDISCSynonym>TSCC01-Pretending I'm Somewhere Else</nciodm:CDISCSynonym>
                    <nciodm:CDISCDefinition>Trauma Symptom Checklist for Children - Pretending I'm somewhere else.</nciodm:CDISCDefinition>
                    <nciodm:PreferredTerm>TSCC - Pretending I'm Somewhere Else</nciodm:PreferredTerm>
                </EnumeratedItem>
                <EnumeratedItem CodedValue="TSCC01-Remembering Scary Things" nciodm:ExtCodeID="C147710">
                    <nciodm:CDISCSynonym>TSCC01-Remembering Scary Things</nciodm:CDISCSynonym>
                    <nciodm:CDISCDefinition>Trauma Symptom Checklist for Children - Remembering scary things.</nciodm:CDISCDefinition>
                    <nciodm:PreferredTerm>TSCC - Remembering Scary Things</nciodm:PreferredTerm>
                </EnumeratedItem>
                <EnumeratedItem CodedValue="TSCC01-Remembering Things Don't Want To" nciodm:ExtCodeID="C147741">
                    <nciodm:CDISCSynonym>TSCC01-Remembering Things Don't Want To</nciodm:CDISCSynonym>
                    <nciodm:CDISCDefinition>Trauma Symptom Checklist for Children - Remembering things I don't want to remember.</nciodm:CDISCDefinition>
                    <nciodm:PreferredTerm>TSCC - Remembering Things Don't Want To</nciodm:PreferredTerm>
                </EnumeratedItem>
                <EnumeratedItem CodedValue="TSCC01-Remembering Things I Didn't Like" nciodm:ExtCodeID="C147708">
                    <nciodm:CDISCSynonym>TSCC01-Remembering Things I Didn't Like</nciodm:CDISCSynonym>
                    <nciodm:CDISCDefinition>Trauma Symptom Checklist for Children - Remembering things that happened that I didn't like.</nciodm:CDISCDefinition>
                    <nciodm:PreferredTerm>TSCC - Remembering Things I Didn't Like</nciodm:PreferredTerm>
                </EnumeratedItem>
                <EnumeratedItem CodedValue="TSCC01-Scared When Think About Sex" nciodm:ExtCodeID="C147738">
                    <nciodm:CDISCSynonym>TSCC01-Scared When Think About Sex</nciodm:CDISCSynonym>
                    <nciodm:CDISCDefinition>Trauma Symptom Checklist for Children - Getting scared or upset when I think about sex.</nciodm:CDISCDefinition>
                    <nciodm:PreferredTerm>TSCC - Scared When Think About Sex</nciodm:PreferredTerm>
                </EnumeratedItem>
                <EnumeratedItem CodedValue="TSCC01-Scary Ideas Just Pop Into My Head" nciodm:ExtCodeID="C147701">
                    <nciodm:CDISCSynonym>TSCC01-Scary Ideas Just Pop Into My Head</nciodm:CDISCSynonym>
                    <nciodm:CDISCDefinition>Trauma Symptom Checklist for Children - Scary ideas or pictures just pop into my head.</nciodm:CDISCDefinition>
                    <nciodm:PreferredTerm>TSCC - Scary Ideas Just Pop Into My Head</nciodm:PreferredTerm>
                </EnumeratedItem>
                <EnumeratedItem CodedValue="TSCC01-Think About Sex When Don't Want" nciodm:ExtCodeID="C147721">
                    <nciodm:CDISCSynonym>TSCC01-Think About Sex When Don't Want</nciodm:CDISCSynonym>
                    <nciodm:CDISCDefinition>Trauma Symptom Checklist for Children - Thinking about sex when I don't want to.</nciodm:CDISCDefinition>
                    <nciodm:PreferredTerm>TSCC - Think About Sex When Don't Want</nciodm:PreferredTerm>
                </EnumeratedItem>
                <EnumeratedItem CodedValue="TSCC01-Think Touch People Private Parts" nciodm:ExtCodeID="C147720">
                    <nciodm:CDISCSynonym>TSCC01-Think Touch People Private Parts</nciodm:CDISCSynonym>
                    <nciodm:CDISCDefinition>Trauma Symptom Checklist for Children - Thinking about touching other people's private parts.</nciodm:CDISCDefinition>
                    <nciodm:PreferredTerm>TSCC - Think Touch People Private Parts</nciodm:PreferredTerm>
                </EnumeratedItem>
                <EnumeratedItem CodedValue="TSCC01-Thinking About Having Sex" nciodm:ExtCodeID="C147715">
                    <nciodm:CDISCSynonym>TSCC01-Thinking About Having Sex</nciodm:CDISCSynonym>
                    <nciodm:CDISCDefinition>Trauma Symptom Checklist for Children - Thinking about having sex.</nciodm:CDISCDefinition>
                    <nciodm:PreferredTerm>TSCC - Thinking About Having Sex</nciodm:PreferredTerm>
                </EnumeratedItem>
                <EnumeratedItem CodedValue="TSCC01-Touching Private Parts Too Much" nciodm:ExtCodeID="C147706">
                    <nciodm:CDISCSynonym>TSCC01-Touching Private Parts Too Much</nciodm:CDISCSynonym>
                    <nciodm:CDISCDefinition>Trauma Symptom Checklist for Children - Touching my private parts too much.</nciodm:CDISCDefinition>
                    <nciodm:PreferredTerm>TSCC - Touching Private Parts Too Much</nciodm:PreferredTerm>
                </EnumeratedItem>
                <EnumeratedItem CodedValue="TSCC01-Trying Not to Have Any Feelings" nciodm:ExtCodeID="C147746">
                    <nciodm:CDISCSynonym>TSCC01-Trying Not to Have Any Feelings</nciodm:CDISCSynonym>
                    <nciodm:CDISCDefinition>Trauma Symptom Checklist for Children - Trying not to have any feelings.</nciodm:CDISCDefinition>
                    <nciodm:PreferredTerm>TSCC - Trying Not to Have Any Feelings</nciodm:PreferredTerm>
                </EnumeratedItem>
                <EnumeratedItem CodedValue="TSCC01-Wanting to Hurt Myself" nciodm:ExtCodeID="C147718">
                    <nciodm:CDISCSynonym>TSCC01-Wanting to Hurt Myself</nciodm:CDISCSynonym>
                    <nciodm:CDISCDefinition>Trauma Symptom Checklist for Children - Wanting to hurt myself.</nciodm:CDISCDefinition>
                    <nciodm:PreferredTerm>TSCC - Wanting to Hurt Myself</nciodm:PreferredTerm>
                </EnumeratedItem>
                <EnumeratedItem CodedValue="TSCC01-Wanting to Hurt Other People" nciodm:ExtCodeID="C147719">
                    <nciodm:CDISCSynonym>TSCC01-Wanting to Hurt Other People</nciodm:CDISCSynonym>
                    <nciodm:CDISCDefinition>Trauma Symptom Checklist for Children - Wanting to hurt other people.</nciodm:CDISCDefinition>
                    <nciodm:PreferredTerm>TSCC - Wanting to Hurt Other People</nciodm:PreferredTerm>
                </EnumeratedItem>
                <EnumeratedItem CodedValue="TSCC01-Wanting to Kill Myself" nciodm:ExtCodeID="C147750">
                    <nciodm:CDISCSynonym>TSCC01-Wanting to Kill Myself</nciodm:CDISCSynonym>
                    <nciodm:CDISCDefinition>Trauma Symptom Checklist for Children - Wanting to kill myself.</nciodm:CDISCDefinition>
                    <nciodm:PreferredTerm>TSCC - Wanting to Kill Myself</nciodm:PreferredTerm>
                </EnumeratedItem>
                <EnumeratedItem CodedValue="TSCC01-Wanting to Say Dirty Words" nciodm:ExtCodeID="C147702">
                    <nciodm:CDISCSynonym>TSCC01-Wanting to Say Dirty Words</nciodm:CDISCSynonym>
                    <nciodm:CDISCDefinition>Trauma Symptom Checklist for Children - Wanting to say dirty words.</nciodm:CDISCDefinition>
                    <nciodm:PreferredTerm>TSCC - Wanting to Say Dirty Words</nciodm:PreferredTerm>
                </EnumeratedItem>
                <EnumeratedItem CodedValue="TSCC01-Wanting to Yell and Break Things" nciodm:ExtCodeID="C147711">
                    <nciodm:CDISCSynonym>TSCC01-Wanting to Yell and Break Things</nciodm:CDISCSynonym>
                    <nciodm:CDISCDefinition>Trauma Symptom Checklist for Children - Wanting to yell and break things.</nciodm:CDISCDefinition>
                    <nciodm:PreferredTerm>TSCC - Wanting to Yell and Break Things</nciodm:PreferredTerm>
                </EnumeratedItem>
                <EnumeratedItem CodedValue="TSCC01-Wanting to Yell at People" nciodm:ExtCodeID="C147717">
                    <nciodm:CDISCSynonym>TSCC01-Wanting to Yell at People</nciodm:CDISCSynonym>
                    <nciodm:CDISCDefinition>Trauma Symptom Checklist for Children - Wanting to yell at people.</nciodm:CDISCDefinition>
                    <nciodm:PreferredTerm>TSCC - Wanting to Yell at People</nciodm:PreferredTerm>
                </EnumeratedItem>
                <EnumeratedItem CodedValue="TSCC01-Washing Myself Because Feel Dirty" nciodm:ExtCodeID="C147724">
                    <nciodm:CDISCSynonym>TSCC01-Washing Myself Because Feel Dirty</nciodm:CDISCSynonym>
                    <nciodm:CDISCDefinition>Trauma Symptom Checklist for Children - Washing myself because I feel dirty on the inside.</nciodm:CDISCDefinition>
                    <nciodm:PreferredTerm>TSCC - Washing Myself Because Feel Dirty</nciodm:PreferredTerm>
                </EnumeratedItem>
                <EnumeratedItem CodedValue="TSCC01-Wishing Bad Things Never Happened" nciodm:ExtCodeID="C147749">
                    <nciodm:CDISCSynonym>TSCC01-Wishing Bad Things Never Happened</nciodm:CDISCSynonym>
                    <nciodm:CDISCDefinition>Trauma Symptom Checklist for Children - Wishing bad things had never happened.</nciodm:CDISCDefinition>
                    <nciodm:PreferredTerm>TSCC - Wishing Bad Things Never Happened</nciodm:PreferredTerm>
                </EnumeratedItem>
                <EnumeratedItem CodedValue="TSCC01-Worrying About Things" nciodm:ExtCodeID="C147739">
                    <nciodm:CDISCSynonym>TSCC01-Worrying About Things</nciodm:CDISCSynonym>
                    <nciodm:CDISCDefinition>Trauma Symptom Checklist for Children - Worrying about things.</nciodm:CDISCDefinition>
                    <nciodm:PreferredTerm>TSCC - Worrying About Things</nciodm:PreferredTerm>
                </EnumeratedItem>
                <nciodm:CDISCSubmissionValue>TSCC01TN</nciodm:CDISCSubmissionValue>
                <nciodm:CDISCSynonym>Trauma Symptom Checklist for Children Questionnaire Test Name</nciodm:CDISCSynonym>
                <nciodm:PreferredTerm>CDISC Questionnaire TSCC Test Name Terminology</nciodm:PreferredTerm>
            </CodeList>
            
