<CodeList xmlns="http://www.cdisc.org/ns/odm/v1.3" xmlns:nciodm="http://ncicb.nci.nih.gov/xml/odm/EVS/CDISC" xmlns:xs="http://www.w3.org/2001/XMLSchema-instance" OID="CL.C101863.DISCHDX" Name="Discharge Disposition" DataType="text" nciodm:ExtCodeID="C101863" nciodm:CodeListExtensible="Yes">
                <Description>
                    <TranslatedText xml:lang="en">The destination or circumstance at the time of discharge.</TranslatedText>
                </Description>
                <EnumeratedItem CodedValue="EXPIRED" nciodm:ExtCodeID="C28554">
                    <nciodm:CDISCSynonym>Died</nciodm:CDISCSynonym>
                    <nciodm:CDISCDefinition>The absence of life or state of being dead. (NCI)</nciodm:CDISCDefinition>
                    <nciodm:PreferredTerm>Death</nciodm:PreferredTerm>
                </EnumeratedItem>
                <EnumeratedItem CodedValue="EXPIRED IN A MEDICAL FACILITY" nciodm:ExtCodeID="C99944">
                    <nciodm:CDISCDefinition>The patient died while in a medical center such as a hospital, skilled nursing facility (SNF), intermediate care facility (ICF), or a freestanding hospice center.</nciodm:CDISCDefinition>
                    <nciodm:PreferredTerm>Died in a Medical Facility</nciodm:PreferredTerm>
                </EnumeratedItem>
                <EnumeratedItem CodedValue="FEDERAL HEALTH CARE FACILITY" nciodm:ExtCodeID="C99909">
                    <nciodm:CDISCDefinition>The patient will be admitted to a medical center that is funded by the federal government (e.g. Veterans Affairs Hospital).</nciodm:CDISCDefinition>
                    <nciodm:PreferredTerm>Federal Health Care Facility</nciodm:PreferredTerm>
                </EnumeratedItem>
                <EnumeratedItem CodedValue="HOME UNDER CARE OF ORGANIZED HOME HEALTH SERVICE ORGANIZATION IN ANTICIPATION OF COVERED SKILLED CARE" nciodm:ExtCodeID="C99959">
                    <nciodm:CDISCDefinition>The patient will return home but personal health maintenance will be administered and monitored by a member of a healthcare organization that is eligible to receive Medicare funding.</nciodm:CDISCDefinition>
                    <nciodm:PreferredTerm>Home Under Care of Organized Home Health Service Organization in Anticipation of Covered Skilled Care</nciodm:PreferredTerm>
                </EnumeratedItem>
                <EnumeratedItem CodedValue="HOME, HOSPICE" nciodm:ExtCodeID="C99958">
                    <nciodm:CDISCDefinition>The patient will receive end-of-life care which will be administered in the patient's home.</nciodm:CDISCDefinition>
                    <nciodm:PreferredTerm>Home Hospice</nciodm:PreferredTerm>
                </EnumeratedItem>
                <EnumeratedItem CodedValue="HOME, SELF CARE" nciodm:ExtCodeID="C99957">
                    <nciodm:CDISCDefinition>A routine discharge where personal health maintenance will be administered and monitored by the patient from their home.</nciodm:CDISCDefinition>
                    <nciodm:PreferredTerm>Home Care</nciodm:PreferredTerm>
                </EnumeratedItem>
                <EnumeratedItem CodedValue="HOSPICE - MEDICAL FACILITY" nciodm:ExtCodeID="C99910">
                    <nciodm:CDISCDefinition>The patient will receive end-of-life care which will be administered in a medical center.</nciodm:CDISCDefinition>
                    <nciodm:PreferredTerm>Hospice Care at Medical Facility</nciodm:PreferredTerm>
                </EnumeratedItem>
                <EnumeratedItem CodedValue="HOSPITAL-BASED MEDICARE-APPROVED SWING BED" nciodm:ExtCodeID="C99960">
                    <nciodm:CDISCDefinition>The patient will be admitted into a medical center and receive a type of hospital bed that will be paid for my Medicare.</nciodm:CDISCDefinition>
                    <nciodm:PreferredTerm>Hospital with Medicare Approved Swing Bed</nciodm:PreferredTerm>
                </EnumeratedItem>
                <EnumeratedItem CodedValue="INPATIENT REHABILITATION FACILITY (IRF) INCLUDING REHABILITATION DISTINCT PART UNITS OF A HOSPITAL" nciodm:ExtCodeID="C99911">
                    <nciodm:CDISCDefinition>The patient will be admitted full time into a free standing rehabilitation center or a rehabilitation center within a general medical facility.</nciodm:CDISCDefinition>
                    <nciodm:PreferredTerm>Inpatient Rehabilitation Facility Including Rehabilitation distinct Part Units of a Hospital</nciodm:PreferredTerm>
                </EnumeratedItem>
                <EnumeratedItem CodedValue="INSTITUTION NOT DEFINED" nciodm:ExtCodeID="C102247">
                    <nciodm:CDISCDefinition>The patient will be admitted into an alternative facility not listed.</nciodm:CDISCDefinition>
                    <nciodm:PreferredTerm>Institution Not Defined</nciodm:PreferredTerm>
                </EnumeratedItem>
                <EnumeratedItem CodedValue="INTERMEDIATE CARE FACILITY" nciodm:ExtCodeID="C99912">
                    <nciodm:CDISCDefinition>The patient will be admitted into a medical center that provides care 24 hours per day.</nciodm:CDISCDefinition>
                    <nciodm:PreferredTerm>Intermediate Care Facility</nciodm:PreferredTerm>
                </EnumeratedItem>
                <EnumeratedItem CodedValue="LEFT AGAINST MEDICAL ADVICE OR DISCONTINUED CARE" nciodm:ExtCodeID="C99969">
                    <nciodm:CDISCDefinition>The patient vacated the medical center or ceased medical care contrary to the recommendation of a trained healthcare provider.</nciodm:CDISCDefinition>
                    <nciodm:PreferredTerm>Left Against Medical Advice</nciodm:PreferredTerm>
                </EnumeratedItem>
                <EnumeratedItem CodedValue="LONG TERM CARE HOSPITAL" nciodm:ExtCodeID="C135382">
                    <nciodm:CDISCDefinition>The patient will be admitted into a hospital equipped and staffed to provide prolonged care to patients.</nciodm:CDISCDefinition>
                    <nciodm:PreferredTerm>Long Term Care Hospital</nciodm:PreferredTerm>
                </EnumeratedItem>
                <EnumeratedItem CodedValue="MEDICARE-CERTIFIED LONG TERM CARE HOSPITAL (LTCH)" nciodm:ExtCodeID="C99984">
                    <nciodm:CDISCDefinition>The patient will be admitted into a Medicare funded medical center for a considerable length of time.</nciodm:CDISCDefinition>
                    <nciodm:PreferredTerm>Medicare Certified Long Term Care Hospital</nciodm:PreferredTerm>
                </EnumeratedItem>
                <EnumeratedItem CodedValue="NURSING FACILITY CERTIFIED UNDER MEDICAID BUT NOT CERTIFIED UNDER MEDICARE" nciodm:ExtCodeID="C99913">
                    <nciodm:CDISCDefinition>The patient will be admitted into a medical center which is eligible to receive funding from Medicaid but not Medicare.</nciodm:CDISCDefinition>
                    <nciodm:PreferredTerm>Nursing Facility Certified Under Medicaid but Not Certified Under Medicare</nciodm:PreferredTerm>
                </EnumeratedItem>
                <EnumeratedItem CodedValue="PSYCHIATRIC HOSPITAL OR A PSYCHIATRIC-DISTINCT PART UNIT OF A HOSPITAL" nciodm:ExtCodeID="C53536">
                    <nciodm:CDISCDefinition>The patient will be admitted into a free standing medical facility or a unit within a general medical facility used for the treatment of mental health disorders.</nciodm:CDISCDefinition>
                    <nciodm:PreferredTerm>Psychiatric Facility</nciodm:PreferredTerm>
                </EnumeratedItem>
                <EnumeratedItem CodedValue="SHORT TERM GENERAL HOSPITAL" nciodm:ExtCodeID="C102248">
                    <nciodm:CDISCDefinition>The patient will remain in a basic hospital environment for a brief time.</nciodm:CDISCDefinition>
                    <nciodm:PreferredTerm>Short Term General Hospital</nciodm:PreferredTerm>
                </EnumeratedItem>
                <EnumeratedItem CodedValue="SKILLED NURSING FACILITY (SNF) WITH MEDICARE CERTIFICATION IN ANTICIPATION OF COVERED SKILLED CARE" nciodm:ExtCodeID="C99914">
                    <nciodm:CDISCDefinition>The patient will be admitted into a medical center equipped with a trained nursing staff that is eligible to receive Medicare funding.</nciodm:CDISCDefinition>
                    <nciodm:PreferredTerm>Skilled Nursing Facility with Medicare Certification in Anticipation of Covered Skilled Care</nciodm:PreferredTerm>
                </EnumeratedItem>
                <nciodm:CDISCSubmissionValue>DISCHDX</nciodm:CDISCSubmissionValue>
                <nciodm:CDISCSynonym>Discharge Disposition</nciodm:CDISCSynonym>
                <nciodm:PreferredTerm>CDISC SDTM Discharge Disposition Terminology</nciodm:PreferredTerm>
            </CodeList>
            
