<CodeList xmlns="http://www.cdisc.org/ns/odm/v1.3" xmlns:nciodm="http://ncicb.nci.nih.gov/xml/odm/EVS/CDISC" xmlns:xs="http://www.w3.org/2001/XMLSchema-instance" OID="CL.C102579.EVDRETRT" Name="Supporting Evidence for Re-Treatment" DataType="text" nciodm:ExtCodeID="C102579" nciodm:CodeListExtensible="Yes">
                <Description>
                    <TranslatedText xml:lang="en">Terminology relevant to the clinical evidence to support reason for re-treatment of disease.</TranslatedText>
                </Description>
                <EnumeratedItem CodedValue="BACTERIOLOGICAL FINDING" nciodm:ExtCodeID="C102602">
                    <nciodm:CDISCDefinition>Objective evidence of bacterial infection perceptible to the examiner by laboratory procedure.</nciodm:CDISCDefinition>
                    <nciodm:PreferredTerm>Bacteriological Finding</nciodm:PreferredTerm>
                </EnumeratedItem>
                <EnumeratedItem CodedValue="CLINICAL FINDING" nciodm:ExtCodeID="C100104">
                    <nciodm:CDISCSynonym>Clinical Signs</nciodm:CDISCSynonym>
                    <nciodm:CDISCDefinition>Objective evidence of disease perceptible to the examiner (sign) and subjective evidence of disease perceived by the subject (symptom).</nciodm:CDISCDefinition>
                    <nciodm:PreferredTerm>Sign or Symptom</nciodm:PreferredTerm>
                </EnumeratedItem>
                <EnumeratedItem CodedValue="RADIOLOGIC FINDING" nciodm:ExtCodeID="C35869">
                    <nciodm:CDISCDefinition>Objective evidence of disease perceptible to the examiner by radiological procedure.</nciodm:CDISCDefinition>
                    <nciodm:PreferredTerm>Radiologic Finding</nciodm:PreferredTerm>
                </EnumeratedItem>
                <nciodm:CDISCSubmissionValue>EVDRETRT</nciodm:CDISCSubmissionValue>
                <nciodm:CDISCSynonym>Supporting Evidence for Re-Treatment</nciodm:CDISCSynonym>
                <nciodm:PreferredTerm>CDISC SDTM Supporting Evidence for Re-Treatment Terminology</nciodm:PreferredTerm>
            </CodeList>
            
