<CodeList xmlns="http://www.cdisc.org/ns/odm/v1.3" xmlns:nciodm="http://ncicb.nci.nih.gov/xml/odm/EVS/CDISC" xmlns:xs="http://www.w3.org/2001/XMLSchema-instance" OID="CL.C112436.DS01TN" Name="Disease Steps Questionnaire Test Name" DataType="text" nciodm:ExtCodeID="C112436" nciodm:CodeListExtensible="No">
                <Description>
                    <TranslatedText xml:lang="en">Disease Steps test name.</TranslatedText>
                </Description>
                <EnumeratedItem CodedValue="DS01-Disease Steps Classification" nciodm:ExtCodeID="C112549">
                    <nciodm:CDISCSynonym>DS01-Disease Steps Classification</nciodm:CDISCSynonym>
                    <nciodm:CDISCDefinition>Disease Steps - Methods: For Disease Steps, classification of a patient is determined by history and neurologic examination as well as course of MS.</nciodm:CDISCDefinition>
                    <nciodm:PreferredTerm>DS - Disease Steps Classification</nciodm:PreferredTerm>
                </EnumeratedItem>
                <nciodm:CDISCSubmissionValue>DS01TN</nciodm:CDISCSubmissionValue>
                <nciodm:CDISCSynonym>Disease Steps Questionnaire Test Name</nciodm:CDISCSynonym>
                <nciodm:PreferredTerm>CDISC Questionnaire DS Test Name Terminology</nciodm:PreferredTerm>
            </CodeList>
            
