<CodeList xmlns="http://www.cdisc.org/ns/odm/v1.3" xmlns:nciodm="http://ncicb.nci.nih.gov/xml/odm/EVS/CDISC" xmlns:xs="http://www.w3.org/2001/XMLSchema-instance" OID="CL.C130262.QIDSR1TN" Name="Quick Inventory of Depressive Symptomatology Self-Report Version Questionnaire Test Name" DataType="text" nciodm:ExtCodeID="C130262" nciodm:CodeListExtensible="No">
                <Description>
                    <TranslatedText xml:lang="en">Quick Inventory of Depressive Symptomatology Self-Report Version test name.</TranslatedText>
                </Description>
                <EnumeratedItem CodedValue="QIDSR1-Concentration/Decision Making" nciodm:ExtCodeID="C130593">
                    <nciodm:CDISCSynonym>QIDSR1-Concentration/Decision Making</nciodm:CDISCSynonym>
                    <nciodm:CDISCDefinition>Quick Inventory of Depressive Symptomatology - Self-Report - Please circle the one response to each item that best describes you for the past seven days: Concentration/decision making.</nciodm:CDISCDefinition>
                    <nciodm:PreferredTerm>QIDS-SR - Concentration or Decision Making</nciodm:PreferredTerm>
                </EnumeratedItem>
                <EnumeratedItem CodedValue="QIDSR1-Decreased Appetite" nciodm:ExtCodeID="C130589">
                    <nciodm:CDISCSynonym>QIDSR1-Decreased Appetite</nciodm:CDISCSynonym>
                    <nciodm:CDISCDefinition>Quick Inventory of Depressive Symptomatology - Self-Report - Please circle the one response to each item that best describes you for the past seven days: Decreased appetite.</nciodm:CDISCDefinition>
                    <nciodm:PreferredTerm>QIDS-SR - Decreased Appetite</nciodm:PreferredTerm>
                </EnumeratedItem>
                <EnumeratedItem CodedValue="QIDSR1-Decreased Weight" nciodm:ExtCodeID="C130591">
                    <nciodm:CDISCSynonym>QIDSR1-Decreased Weight</nciodm:CDISCSynonym>
                    <nciodm:CDISCDefinition>Quick Inventory of Depressive Symptomatology - Self-Report - Please circle the one response to each item that best describes you for the past seven days: within the last two weeks: Decreased weight.</nciodm:CDISCDefinition>
                    <nciodm:PreferredTerm>QIDS-SR - Decreased Weight</nciodm:PreferredTerm>
                </EnumeratedItem>
                <EnumeratedItem CodedValue="QIDSR1-Energy Level" nciodm:ExtCodeID="C130597">
                    <nciodm:CDISCSynonym>QIDSR1-Energy Level</nciodm:CDISCSynonym>
                    <nciodm:CDISCDefinition>Quick Inventory of Depressive Symptomatology - Self-Report - Please circle the one response to each item that best describes you for the past seven days: Energy level.</nciodm:CDISCDefinition>
                    <nciodm:PreferredTerm>QIDS-SR - Energy Level</nciodm:PreferredTerm>
                </EnumeratedItem>
                <EnumeratedItem CodedValue="QIDSR1-Falling Asleep" nciodm:ExtCodeID="C130584">
                    <nciodm:CDISCSynonym>QIDSR1-Falling Asleep</nciodm:CDISCSynonym>
                    <nciodm:CDISCDefinition>Quick Inventory of Depressive Symptomatology - Self-Report - Please circle the one response to each item that best describes you for the past seven days: Falling asleep.</nciodm:CDISCDefinition>
                    <nciodm:PreferredTerm>QIDS-SR - Falling Asleep</nciodm:PreferredTerm>
                </EnumeratedItem>
                <EnumeratedItem CodedValue="QIDSR1-Feeling Restless" nciodm:ExtCodeID="C130599">
                    <nciodm:CDISCSynonym>QIDSR1-Feeling Restless</nciodm:CDISCSynonym>
                    <nciodm:CDISCDefinition>Quick Inventory of Depressive Symptomatology - Self-Report - Please circle the one response to each item that best describes you for the past seven days: Feeling restless.</nciodm:CDISCDefinition>
                    <nciodm:PreferredTerm>QIDS-SR - Feeling Restless</nciodm:PreferredTerm>
                </EnumeratedItem>
                <EnumeratedItem CodedValue="QIDSR1-Feeling Sad" nciodm:ExtCodeID="C130588">
                    <nciodm:CDISCSynonym>QIDSR1-Feeling Sad</nciodm:CDISCSynonym>
                    <nciodm:CDISCDefinition>Quick Inventory of Depressive Symptomatology - Self-Report - Please circle the one response to each item that best describes you for the past seven days: Feeling sad.</nciodm:CDISCDefinition>
                    <nciodm:PreferredTerm>QIDS-SR - Feeling Sad</nciodm:PreferredTerm>
                </EnumeratedItem>
                <EnumeratedItem CodedValue="QIDSR1-Feeling Slowed Down" nciodm:ExtCodeID="C130598">
                    <nciodm:CDISCSynonym>QIDSR1-Feeling Slowed Down</nciodm:CDISCSynonym>
                    <nciodm:CDISCDefinition>Quick Inventory of Depressive Symptomatology - Self-Report - Please circle the one response to each item that best describes you for the past seven days: Feeling slowed down.</nciodm:CDISCDefinition>
                    <nciodm:PreferredTerm>QIDS-SR - Feeling Slowed Down</nciodm:PreferredTerm>
                </EnumeratedItem>
                <EnumeratedItem CodedValue="QIDSR1-General Interest" nciodm:ExtCodeID="C130596">
                    <nciodm:CDISCSynonym>QIDSR1-General Interest</nciodm:CDISCSynonym>
                    <nciodm:CDISCDefinition>Quick Inventory of Depressive Symptomatology - Self-Report - Please circle the one response to each item that best describes you for the past seven days: General interest.</nciodm:CDISCDefinition>
                    <nciodm:PreferredTerm>QIDS-SR - General Interest</nciodm:PreferredTerm>
                </EnumeratedItem>
                <EnumeratedItem CodedValue="QIDSR1-High Score Appetite/Weight Items" nciodm:ExtCodeID="C130601">
                    <nciodm:CDISCSynonym>QIDSR1-High Score Appetite/Weight Items</nciodm:CDISCSynonym>
                    <nciodm:CDISCDefinition>Quick Inventory of Depressive Symptomatology - Self-Report - Enter the highest score on any 1 of the 4 appetite/weight change items.</nciodm:CDISCDefinition>
                    <nciodm:PreferredTerm>QIDS-SR - High Score Appetite or Weight Items</nciodm:PreferredTerm>
                </EnumeratedItem>
                <EnumeratedItem CodedValue="QIDSR1-Highest Score Psychomotor Items" nciodm:ExtCodeID="C130602">
                    <nciodm:CDISCSynonym>QIDSR1-Highest Score Psychomotor Items</nciodm:CDISCSynonym>
                    <nciodm:CDISCDefinition>Quick Inventory of Depressive Symptomatology - Self-Report - Enter the highest score on either of the 2 psychomotor items.</nciodm:CDISCDefinition>
                    <nciodm:PreferredTerm>QIDS-SR - Highest Score Psychomotor Items</nciodm:PreferredTerm>
                </EnumeratedItem>
                <EnumeratedItem CodedValue="QIDSR1-Highest Score Sleep Items" nciodm:ExtCodeID="C130600">
                    <nciodm:CDISCSynonym>QIDSR1-Highest Score Sleep Items</nciodm:CDISCSynonym>
                    <nciodm:CDISCDefinition>Quick Inventory of Depressive Symptomatology - Self-Report - Enter the highest score on any 1 of the 4 sleep items.</nciodm:CDISCDefinition>
                    <nciodm:PreferredTerm>QIDS-SR - Highest Score Sleep Items</nciodm:PreferredTerm>
                </EnumeratedItem>
                <EnumeratedItem CodedValue="QIDSR1-Increased Appetite" nciodm:ExtCodeID="C130590">
                    <nciodm:CDISCSynonym>QIDSR1-Increased Appetite</nciodm:CDISCSynonym>
                    <nciodm:CDISCDefinition>Quick Inventory of Depressive Symptomatology - Self-Report - Please circle the one response to each item that best describes you for the past seven days: Increased appetite.</nciodm:CDISCDefinition>
                    <nciodm:PreferredTerm>QIDS-SR - Increased Appetite</nciodm:PreferredTerm>
                </EnumeratedItem>
                <EnumeratedItem CodedValue="QIDSR1-Increased Weight" nciodm:ExtCodeID="C130592">
                    <nciodm:CDISCSynonym>QIDSR1-Increased Weight</nciodm:CDISCSynonym>
                    <nciodm:CDISCDefinition>Quick Inventory of Depressive Symptomatology - Self-Report - Please circle the one response to each item that best describes you for the past seven days: within the last two weeks: Increased weight.</nciodm:CDISCDefinition>
                    <nciodm:PreferredTerm>QIDS-SR - Increased Weight</nciodm:PreferredTerm>
                </EnumeratedItem>
                <EnumeratedItem CodedValue="QIDSR1-Sleep During the Night" nciodm:ExtCodeID="C130585">
                    <nciodm:CDISCSynonym>QIDSR1-Sleep During the Night</nciodm:CDISCSynonym>
                    <nciodm:CDISCDefinition>Quick Inventory of Depressive Symptomatology - Self-Report - Please circle the one response to each item that best describes you for the past seven days: Sleep during the night.</nciodm:CDISCDefinition>
                    <nciodm:PreferredTerm>QIDS-SR - Sleep During the Night</nciodm:PreferredTerm>
                </EnumeratedItem>
                <EnumeratedItem CodedValue="QIDSR1-Sleeping Too Much" nciodm:ExtCodeID="C130587">
                    <nciodm:CDISCSynonym>QIDSR1-Sleeping Too Much</nciodm:CDISCSynonym>
                    <nciodm:CDISCDefinition>Quick Inventory of Depressive Symptomatology - Self-Report - Please circle the one response to each item that best describes you for the past seven days: Sleeping too much.</nciodm:CDISCDefinition>
                    <nciodm:PreferredTerm>QIDS-SR - Sleeping Too Much</nciodm:PreferredTerm>
                </EnumeratedItem>
                <EnumeratedItem CodedValue="QIDSR1-Thoughts of Death or Suicide" nciodm:ExtCodeID="C130595">
                    <nciodm:CDISCSynonym>QIDSR1-Thoughts of Death or Suicide</nciodm:CDISCSynonym>
                    <nciodm:CDISCDefinition>Quick Inventory of Depressive Symptomatology - Self-Report - Please circle the one response to each item that best describes you for the past seven days: Thoughts of death or suicide.</nciodm:CDISCDefinition>
                    <nciodm:PreferredTerm>QIDS-SR - Thoughts of Death or Suicide</nciodm:PreferredTerm>
                </EnumeratedItem>
                <EnumeratedItem CodedValue="QIDSR1-Total Score" nciodm:ExtCodeID="C130603">
                    <nciodm:CDISCSynonym>QIDSR1-Total Score</nciodm:CDISCSynonym>
                    <nciodm:CDISCDefinition>Quick Inventory of Depressive Symptomatology - Self-Report - Total score.</nciodm:CDISCDefinition>
                    <nciodm:PreferredTerm>QIDS-SR - Total Score</nciodm:PreferredTerm>
                </EnumeratedItem>
                <EnumeratedItem CodedValue="QIDSR1-View of Myself" nciodm:ExtCodeID="C130594">
                    <nciodm:CDISCSynonym>QIDSR1-View of Myself</nciodm:CDISCSynonym>
                    <nciodm:CDISCDefinition>Quick Inventory of Depressive Symptomatology - Self-Report - Please circle the one response to each item that best describes you for the past seven days: View of myself.</nciodm:CDISCDefinition>
                    <nciodm:PreferredTerm>QIDS-SR - View of Myself</nciodm:PreferredTerm>
                </EnumeratedItem>
                <EnumeratedItem CodedValue="QIDSR1-Waking Up Too Early" nciodm:ExtCodeID="C130586">
                    <nciodm:CDISCSynonym>QIDSR1-Waking Up Too Early</nciodm:CDISCSynonym>
                    <nciodm:CDISCDefinition>Quick Inventory of Depressive Symptomatology - Self-Report - Please circle the one response to each item that best describes you for the past seven days: Waking up too early.</nciodm:CDISCDefinition>
                    <nciodm:PreferredTerm>QIDS-SR - Waking Up Too Early</nciodm:PreferredTerm>
                </EnumeratedItem>
                <nciodm:CDISCSubmissionValue>QIDSR1TN</nciodm:CDISCSubmissionValue>
                <nciodm:CDISCSynonym>Quick Inventory of Depressive Symptomatology Self-Report Version Questionnaire Test Name</nciodm:CDISCSynonym>
                <nciodm:PreferredTerm>CDISC Questionnaire QIDS-SR Test Name Terminology</nciodm:PreferredTerm>
            </CodeList>
            
