<CodeList xmlns="http://www.cdisc.org/ns/odm/v1.3" xmlns:nciodm="http://ncicb.nci.nih.gov/xml/odm/EVS/CDISC" xmlns:xs="http://www.w3.org/2001/XMLSchema-instance" OID="CL.C138251.PQL04TC" Name="Pediatric Quality of Life Neuromuscular Module Version 3 Teen Parent Report Questionnaire Test Code" DataType="text" nciodm:ExtCodeID="C138251" nciodm:CodeListExtensible="No">
                <Description>
                    <TranslatedText xml:lang="en">Pediatric Quality of Life Neuromuscular Module Version 3 Teen Parent Report test code.</TranslatedText>
                </Description>
                <EnumeratedItem CodedValue="PQL0401" nciodm:ExtCodeID="C138757">
                    <nciodm:CDISCSynonym>PQL04-Hard to Breathe</nciodm:CDISCSynonym>
                    <nciodm:CDISCDefinition>Pediatric Quality of Life Neuromuscular Module Version 3 Teen Parent Report - In the past one month, how much of a problem has this been for your teen: It is hard for my child to breathe.</nciodm:CDISCDefinition>
                    <nciodm:PreferredTerm>PedsQL Neuromuscular Module Version 3.0 Parent Report for Teen - Hard to Breathe</nciodm:PreferredTerm>
                </EnumeratedItem>
                <EnumeratedItem CodedValue="PQL0402" nciodm:ExtCodeID="C138758">
                    <nciodm:CDISCSynonym>PQL04-Get Sick Easily</nciodm:CDISCSynonym>
                    <nciodm:CDISCDefinition>Pediatric Quality of Life Neuromuscular Module Version 3 Teen Parent Report - In the past one month, how much of a problem has this been for your teen: My child gets sick easily.</nciodm:CDISCDefinition>
                    <nciodm:PreferredTerm>PedsQL Neuromuscular Module Version 3.0 Parent Report for Teen - Get Sick Easily</nciodm:PreferredTerm>
                </EnumeratedItem>
                <EnumeratedItem CodedValue="PQL0403" nciodm:ExtCodeID="C138759">
                    <nciodm:CDISCSynonym>PQL04-Get Sores and/or Rashes</nciodm:CDISCSynonym>
                    <nciodm:CDISCDefinition>Pediatric Quality of Life Neuromuscular Module Version 3 Teen Parent Report - In the past one month, how much of a problem has this been for your teen: My child gets sores and/or rashes.</nciodm:CDISCDefinition>
                    <nciodm:PreferredTerm>PedsQL Neuromuscular Module Version 3.0 Parent Report for Teen - Get Sores and/or Rashes</nciodm:PreferredTerm>
                </EnumeratedItem>
                <EnumeratedItem CodedValue="PQL0404" nciodm:ExtCodeID="C138760">
                    <nciodm:CDISCSynonym>PQL04-Legs Hurt</nciodm:CDISCSynonym>
                    <nciodm:CDISCDefinition>Pediatric Quality of Life Neuromuscular Module Version 3 Teen Parent Report - In the past one month, how much of a problem has this been for your teen: My child's legs hurt.</nciodm:CDISCDefinition>
                    <nciodm:PreferredTerm>PedsQL Neuromuscular Module Version 3.0 Parent Report for Teen - Legs Hurt</nciodm:PreferredTerm>
                </EnumeratedItem>
                <EnumeratedItem CodedValue="PQL0405" nciodm:ExtCodeID="C138761">
                    <nciodm:CDISCSynonym>PQL04-Feel Tired</nciodm:CDISCSynonym>
                    <nciodm:CDISCDefinition>Pediatric Quality of Life Neuromuscular Module Version 3 Teen Parent Report - In the past one month, how much of a problem has this been for your teen: My child feels tired.</nciodm:CDISCDefinition>
                    <nciodm:PreferredTerm>PedsQL Neuromuscular Module Version 3.0 Parent Report for Teen - Feel Tired</nciodm:PreferredTerm>
                </EnumeratedItem>
                <EnumeratedItem CodedValue="PQL0406" nciodm:ExtCodeID="C138762">
                    <nciodm:CDISCSynonym>PQL04-Back Feels Stiff</nciodm:CDISCSynonym>
                    <nciodm:CDISCDefinition>Pediatric Quality of Life Neuromuscular Module Version 3 Teen Parent Report - In the past one month, how much of a problem has this been for your teen: My child's back feels stiff.</nciodm:CDISCDefinition>
                    <nciodm:PreferredTerm>PedsQL Neuromuscular Module Version 3.0 Parent Report for Teen - Back Feels Stiff</nciodm:PreferredTerm>
                </EnumeratedItem>
                <EnumeratedItem CodedValue="PQL0407" nciodm:ExtCodeID="C138763">
                    <nciodm:CDISCSynonym>PQL04-Wake Up Tired</nciodm:CDISCSynonym>
                    <nciodm:CDISCDefinition>Pediatric Quality of Life Neuromuscular Module Version 3 Teen Parent Report - In the past one month, how much of a problem has this been for your teen: My child wakes up tired.</nciodm:CDISCDefinition>
                    <nciodm:PreferredTerm>PedsQL Neuromuscular Module Version 3.0 Parent Report for Teen - Wake Up Tired</nciodm:PreferredTerm>
                </EnumeratedItem>
                <EnumeratedItem CodedValue="PQL0408" nciodm:ExtCodeID="C138764">
                    <nciodm:CDISCSynonym>PQL04-Hands Are Weak</nciodm:CDISCSynonym>
                    <nciodm:CDISCDefinition>Pediatric Quality of Life Neuromuscular Module Version 3 Teen Parent Report - In the past one month, how much of a problem has this been for your teen: My child's hands are weak.</nciodm:CDISCDefinition>
                    <nciodm:PreferredTerm>PedsQL Neuromuscular Module Version 3.0 Parent Report for Teen - Hands Are Weak</nciodm:PreferredTerm>
                </EnumeratedItem>
                <EnumeratedItem CodedValue="PQL0409" nciodm:ExtCodeID="C138765">
                    <nciodm:CDISCSynonym>PQL04-Hard to Use Bathroom</nciodm:CDISCSynonym>
                    <nciodm:CDISCDefinition>Pediatric Quality of Life Neuromuscular Module Version 3 Teen Parent Report - In the past one month, how much of a problem has this been for your teen: It is hard for my child to use the bathroom.</nciodm:CDISCDefinition>
                    <nciodm:PreferredTerm>PedsQL Neuromuscular Module Version 3.0 Parent Report for Teen - Hard to Use Bathroom</nciodm:PreferredTerm>
                </EnumeratedItem>
                <EnumeratedItem CodedValue="PQL0410" nciodm:ExtCodeID="C138766">
                    <nciodm:CDISCSynonym>PQL04-Hard to Gain/Lose Weight</nciodm:CDISCSynonym>
                    <nciodm:CDISCDefinition>Pediatric Quality of Life Neuromuscular Module Version 3 Teen Parent Report - In the past one month, how much of a problem has this been for your teen: It is hard for my child to gain or lose weight when he or she wants to.</nciodm:CDISCDefinition>
                    <nciodm:PreferredTerm>PedsQL Neuromuscular Module Version 3.0 Parent Report for Teen - Hard to Gain or Lose Weight</nciodm:PreferredTerm>
                </EnumeratedItem>
                <EnumeratedItem CodedValue="PQL0411" nciodm:ExtCodeID="C138767">
                    <nciodm:CDISCSynonym>PQL04-Hard to Use Hands</nciodm:CDISCSynonym>
                    <nciodm:CDISCDefinition>Pediatric Quality of Life Neuromuscular Module Version 3 Teen Parent Report - In the past one month, how much of a problem has this been for your teen: It is hard for my child to use his or her hands.</nciodm:CDISCDefinition>
                    <nciodm:PreferredTerm>PedsQL Neuromuscular Module Version 3.0 Parent Report for Teen - Hard to Use Hands</nciodm:PreferredTerm>
                </EnumeratedItem>
                <EnumeratedItem CodedValue="PQL0412" nciodm:ExtCodeID="C138768">
                    <nciodm:CDISCSynonym>PQL04-Hard to Swallow Food</nciodm:CDISCSynonym>
                    <nciodm:CDISCDefinition>Pediatric Quality of Life Neuromuscular Module Version 3 Teen Parent Report - In the past one month, how much of a problem has this been for your teen: It is hard for my child to swallow food.</nciodm:CDISCDefinition>
                    <nciodm:PreferredTerm>PedsQL Neuromuscular Module Version 3.0 Parent Report for Teen - Hard to Swallow Food</nciodm:PreferredTerm>
                </EnumeratedItem>
                <EnumeratedItem CodedValue="PQL0413" nciodm:ExtCodeID="C138769">
                    <nciodm:CDISCSynonym>PQL04-Long Time to Bathe/Shower</nciodm:CDISCSynonym>
                    <nciodm:CDISCDefinition>Pediatric Quality of Life Neuromuscular Module Version 3 Teen Parent Report - In the past one month, how much of a problem has this been for your teen: It takes my child a long time to bathe or shower.</nciodm:CDISCDefinition>
                    <nciodm:PreferredTerm>PedsQL Neuromuscular Module Version 3.0 Parent Report for Teen - Long Time to Bathe or Shower</nciodm:PreferredTerm>
                </EnumeratedItem>
                <EnumeratedItem CodedValue="PQL0414" nciodm:ExtCodeID="C138770">
                    <nciodm:CDISCSynonym>PQL04-Get Hurt Accidentally</nciodm:CDISCSynonym>
                    <nciodm:CDISCDefinition>Pediatric Quality of Life Neuromuscular Module Version 3 Teen Parent Report - In the past one month, how much of a problem has this been for your teen: My child gets hurt accidentally.</nciodm:CDISCDefinition>
                    <nciodm:PreferredTerm>PedsQL Neuromuscular Module Version 3.0 Parent Report for Teen - Get Hurt Accidentally</nciodm:PreferredTerm>
                </EnumeratedItem>
                <EnumeratedItem CodedValue="PQL0415" nciodm:ExtCodeID="C138771">
                    <nciodm:CDISCSynonym>PQL04-Take Long Time to Eat</nciodm:CDISCSynonym>
                    <nciodm:CDISCDefinition>Pediatric Quality of Life Neuromuscular Module Version 3 Teen Parent Report - In the past one month, how much of a problem has this been for your teen: My child takes a long time to eat.</nciodm:CDISCDefinition>
                    <nciodm:PreferredTerm>PedsQL Neuromuscular Module Version 3.0 Parent Report for Teen - Take Long Time to Eat</nciodm:PreferredTerm>
                </EnumeratedItem>
                <EnumeratedItem CodedValue="PQL0416" nciodm:ExtCodeID="C138772">
                    <nciodm:CDISCSynonym>PQL04-Hard to Turn During Night</nciodm:CDISCSynonym>
                    <nciodm:CDISCDefinition>Pediatric Quality of Life Neuromuscular Module Version 3 Teen Parent Report - In the past one month, how much of a problem has this been for your teen: It is hard for my child to turn him or herself during the night.</nciodm:CDISCDefinition>
                    <nciodm:PreferredTerm>PedsQL Neuromuscular Module Version 3.0 Parent Report for Teen - Hard to Turn During Night</nciodm:PreferredTerm>
                </EnumeratedItem>
                <EnumeratedItem CodedValue="PQL0417" nciodm:ExtCodeID="C138773">
                    <nciodm:CDISCSynonym>PQL04-Hard to Go Places With Equipment</nciodm:CDISCSynonym>
                    <nciodm:CDISCDefinition>Pediatric Quality of Life Neuromuscular Module Version 3 Teen Parent Report - In the past one month, how much of a problem has this been for your teen: It is hard for my child to go places with his or her equipment.</nciodm:CDISCDefinition>
                    <nciodm:PreferredTerm>PedsQL Neuromuscular Module Version 3.0 Parent Report for Teen - Hard to Go Places With Equipment</nciodm:PreferredTerm>
                </EnumeratedItem>
                <EnumeratedItem CodedValue="PQL0418" nciodm:ExtCodeID="C138774">
                    <nciodm:CDISCSynonym>PQL04-Hard Tell Doctors/Nurses How Feel</nciodm:CDISCSynonym>
                    <nciodm:CDISCDefinition>Pediatric Quality of Life Neuromuscular Module Version 3 Teen Parent Report - In the past one month, how much of a problem has this been for your teen: It is hard for my child to tell the doctors and nurses how he or she feels.</nciodm:CDISCDefinition>
                    <nciodm:PreferredTerm>PedsQL Neuromuscular Module Version 3.0 Parent Report for Teen - Hard Tell Doctors and Nurses How Feel</nciodm:PreferredTerm>
                </EnumeratedItem>
                <EnumeratedItem CodedValue="PQL0419" nciodm:ExtCodeID="C138775">
                    <nciodm:CDISCSynonym>PQL04-Hard Ask Doctors/Nurses Questions</nciodm:CDISCSynonym>
                    <nciodm:CDISCDefinition>Pediatric Quality of Life Neuromuscular Module Version 3 Teen Parent Report - In the past one month, how much of a problem has this been for your teen: It is hard for my child to ask the doctors and nurses questions.</nciodm:CDISCDefinition>
                    <nciodm:PreferredTerm>PedsQL Neuromuscular Module Version 3.0 Parent Report for Teen - Hard Ask Doctors and Nurses Questions</nciodm:PreferredTerm>
                </EnumeratedItem>
                <EnumeratedItem CodedValue="PQL0420" nciodm:ExtCodeID="C138776">
                    <nciodm:CDISCSynonym>PQL04-Hard Explain Illness to People</nciodm:CDISCSynonym>
                    <nciodm:CDISCDefinition>Pediatric Quality of Life Neuromuscular Module Version 3 Teen Parent Report - In the past one month, how much of a problem has this been for your teen: It is hard for my child to explain his or her illness to other people.</nciodm:CDISCDefinition>
                    <nciodm:PreferredTerm>PedsQL Neuromuscular Module Version 3.0 Parent Report for Teen - Hard Explain Illness to People</nciodm:PreferredTerm>
                </EnumeratedItem>
                <EnumeratedItem CodedValue="PQL0421" nciodm:ExtCodeID="C138777">
                    <nciodm:CDISCSynonym>PQL04-Hard for Family to Plan Activities</nciodm:CDISCSynonym>
                    <nciodm:CDISCDefinition>Pediatric Quality of Life Neuromuscular Module Version 3 Teen Parent Report - In the past one month, how much of a problem has this been for your teen: It is hard for our family to plan activities like vacations.</nciodm:CDISCDefinition>
                    <nciodm:PreferredTerm>PedsQL Neuromuscular Module Version 3.0 Parent Report for Teen - Hard for Family to Plan Activities</nciodm:PreferredTerm>
                </EnumeratedItem>
                <EnumeratedItem CodedValue="PQL0422" nciodm:ExtCodeID="C138778">
                    <nciodm:CDISCSynonym>PQL04-Hard for Family to Rest</nciodm:CDISCSynonym>
                    <nciodm:CDISCDefinition>Pediatric Quality of Life Neuromuscular Module Version 3 Teen Parent Report - In the past one month, how much of a problem has this been for your teen: It is hard for our family to get enough rest.</nciodm:CDISCDefinition>
                    <nciodm:PreferredTerm>PedsQL Neuromuscular Module Version 3.0 Parent Report for Teen - Hard for Family to Rest</nciodm:PreferredTerm>
                </EnumeratedItem>
                <EnumeratedItem CodedValue="PQL0423" nciodm:ExtCodeID="C138779">
                    <nciodm:CDISCSynonym>PQL04-Money Problem in Our Family</nciodm:CDISCSynonym>
                    <nciodm:CDISCDefinition>Pediatric Quality of Life Neuromuscular Module Version 3 Teen Parent Report - In the past one month, how much of a problem has this been for your teen: I think money is a problem in our family.</nciodm:CDISCDefinition>
                    <nciodm:PreferredTerm>PedsQL Neuromuscular Module Version 3.0 Parent Report for Teen - Money Problem in Our Family</nciodm:PreferredTerm>
                </EnumeratedItem>
                <EnumeratedItem CodedValue="PQL0424" nciodm:ExtCodeID="C138780">
                    <nciodm:CDISCSynonym>PQL04-Family Has Lot of Problems</nciodm:CDISCSynonym>
                    <nciodm:CDISCDefinition>Pediatric Quality of Life Neuromuscular Module Version 3 Teen Parent Report - In the past one month, how much of a problem has this been for your teen: I think our family has a lot of problems.</nciodm:CDISCDefinition>
                    <nciodm:PreferredTerm>PedsQL Neuromuscular Module Version 3.0 Parent Report for Teen - Family Has Lot of Problems</nciodm:PreferredTerm>
                </EnumeratedItem>
                <EnumeratedItem CodedValue="PQL0425" nciodm:ExtCodeID="C138781">
                    <nciodm:CDISCSynonym>PQL04-Do Not Have Equipment Need</nciodm:CDISCSynonym>
                    <nciodm:CDISCDefinition>Pediatric Quality of Life Neuromuscular Module Version 3 Teen Parent Report - In the past one month, how much of a problem has this been for your teen: My child does not have the equipment he or she needs.</nciodm:CDISCDefinition>
                    <nciodm:PreferredTerm>PedsQL Neuromuscular Module Version 3.0 Parent Report for Teen - Do Not Have Equipment Need</nciodm:PreferredTerm>
                </EnumeratedItem>
                <nciodm:CDISCSubmissionValue>PQL04TC</nciodm:CDISCSubmissionValue>
                <nciodm:CDISCSynonym>Pediatric Quality of Life Neuromuscular Module Version 3 Teen Parent Report Questionnaire Test Code</nciodm:CDISCSynonym>
                <nciodm:PreferredTerm>CDISC Questionnaire PedsQL Neuromuscular Module Version 3.0 Parent Report for Teen Test Code Terminology</nciodm:PreferredTerm>
            </CodeList>
            
