<CodeList xmlns="http://www.cdisc.org/ns/odm/v1.3" xmlns:nciodm="http://ncicb.nci.nih.gov/xml/odm/EVS/CDISC" xmlns:xs="http://www.w3.org/2001/XMLSchema-instance" OID="CL.C114118.PROTMLST" Name="Protocol Milestone" DataType="text" nciodm:ExtCodeID="C114118" nciodm:CodeListExtensible="Yes">
                <Description>
                    <TranslatedText xml:lang="en">A terminology codelist relevant to protocol-specified, point-in-time events during a study.</TranslatedText>
                </Description>
                <EnumeratedItem CodedValue="ELIGIBILITY CRITERIA MET" nciodm:ExtCodeID="C132447">
                    <nciodm:CDISCDefinition>The subject has fulfilled the criteria needed to enter or continue in the study.</nciodm:CDISCDefinition>
                    <nciodm:PreferredTerm>Eligibility Criteria Met By Subject</nciodm:PreferredTerm>
                </EnumeratedItem>
                <EnumeratedItem CodedValue="INFORMED CONSENT OBTAINED" nciodm:ExtCodeID="C16735">
                    <nciodm:CDISCDefinition>Consent given by a subject, or in the case of an individual that can only give assent, by a parent or legal guardian, for the participation in a clinical study only after having achieved an understanding of both the relevant medical facts and the relevant risks involved.</nciodm:CDISCDefinition>
                    <nciodm:PreferredTerm>Informed Consent</nciodm:PreferredTerm>
                </EnumeratedItem>
                <EnumeratedItem CodedValue="RANDOMIZED" nciodm:ExtCodeID="C114209">
                    <nciodm:CDISCDefinition>Participants are assigned to arms of a clinical trial by chance.</nciodm:CDISCDefinition>
                    <nciodm:PreferredTerm>Subject is Randomized</nciodm:PreferredTerm>
                </EnumeratedItem>
                <nciodm:CDISCSubmissionValue>PROTMLST</nciodm:CDISCSubmissionValue>
                <nciodm:CDISCSynonym>Protocol Milestone</nciodm:CDISCSynonym>
                <nciodm:PreferredTerm>CDISC SDTM Protocol Milestone Terminology</nciodm:PreferredTerm>
            </CodeList>
            
