<CodeList xmlns="http://www.cdisc.org/ns/odm/v1.3" xmlns:nciodm="http://ncicb.nci.nih.gov/xml/odm/EVS/CDISC" xmlns:xs="http://www.w3.org/2001/XMLSchema-instance" OID="CL.C128681.GASTRO" Name="Gastrointestinal Test Name" DataType="text" nciodm:ExtCodeID="C128681" nciodm:CodeListExtensible="Yes">
                <Description>
                    <TranslatedText xml:lang="en">A terminology codelist based on the test names for physiological findings related to the gastrointestinal system.</TranslatedText>
                </Description>
                <EnumeratedItem CodedValue="Elasticity" nciodm:ExtCodeID="C119332">
                    <nciodm:CDISCSynonym>Elasticity</nciodm:CDISCSynonym>
                    <nciodm:CDISCDefinition>A quantitative measurement of an organ's ability to deform in response to physiological force and return to its normal shape by passive elastic recoil.</nciodm:CDISCDefinition>
                    <nciodm:PreferredTerm>Organ Elasticity</nciodm:PreferredTerm>
                </EnumeratedItem>
                <EnumeratedItem CodedValue="Rectal Tumor to Anal Verge Distance" nciodm:ExtCodeID="C139184">
                    <nciodm:CDISCSynonym>Rectal Tumor to Anal Verge Distance</nciodm:CDISCSynonym>
                    <nciodm:CDISCDefinition>A measurement of the distance between the rectal tumor and the anal margin.</nciodm:CDISCDefinition>
                    <nciodm:PreferredTerm>Rectal Tumor to Anal Verge Distance</nciodm:PreferredTerm>
                </EnumeratedItem>
                <nciodm:CDISCSubmissionValue>GASTRO</nciodm:CDISCSubmissionValue>
                <nciodm:CDISCSynonym>Gastrointestinal Test Name</nciodm:CDISCSynonym>
                <nciodm:PreferredTerm>CDISC SDTM Gastrointestinal Test Name Terminology</nciodm:PreferredTerm>
            </CodeList>
            
