<CodeList xmlns="http://www.cdisc.org/ns/odm/v1.3" xmlns:nciodm="http://ncicb.nci.nih.gov/xml/odm/EVS/CDISC" xmlns:xs="http://www.w3.org/2001/XMLSchema-instance" OID="CL.C119076.CADG01TC" Name="Coronary Artery Dissection NHLBI Grade Clinical Classification Test Code" DataType="text" nciodm:ExtCodeID="C119076" nciodm:CodeListExtensible="No">
                <Description>
                    <TranslatedText xml:lang="en">Coronary Artery Dissection NHLBI Grade test code.</TranslatedText>
                </Description>
                <EnumeratedItem CodedValue="CADG0101" nciodm:ExtCodeID="C119196">
                    <nciodm:CDISCSynonym>CADG01-Coronary Dissection NHLBI Grade</nciodm:CDISCSynonym>
                    <nciodm:CDISCDefinition>Coronary Artery Dissection NHLBI Grade - A grading system to describe coronary artery dissection per the NHLBI, American College of Cardiology, American Heart Association.</nciodm:CDISCDefinition>
                    <nciodm:PreferredTerm>NHLBI CAD Grade - Coronary Artery Dissection NHLBI Grade</nciodm:PreferredTerm>
                </EnumeratedItem>
                <nciodm:CDISCSubmissionValue>CADG01TC</nciodm:CDISCSubmissionValue>
                <nciodm:CDISCSynonym>Coronary Artery Dissection NHLBI Grade Clinical Classification Test Code</nciodm:CDISCSynonym>
                <nciodm:PreferredTerm>CDISC Clinical Classification NHLBI CAD Grade Test Code Terminology</nciodm:PreferredTerm>
            </CodeList>
            
