<CodeList xmlns="http://www.cdisc.org/ns/odm/v1.3" xmlns:nciodm="http://ncicb.nci.nih.gov/xml/odm/EVS/CDISC" xmlns:xs="http://www.w3.org/2001/XMLSchema-instance" OID="CL.C138224.FAC043TN" Name="Functional Assessment of Cancer Therapy-Lung Symptom Index Questionnaire Test Name" DataType="text" nciodm:ExtCodeID="C138224" nciodm:CodeListExtensible="No">
                <Description>
                    <TranslatedText xml:lang="en">Functional Assessment of Cancer Therapy-Lung Symptom Index test name.</TranslatedText>
                </Description>
                <EnumeratedItem CodedValue="FAC043-Certain Parts of Body Have Pain" nciodm:ExtCodeID="C138464">
                    <nciodm:CDISCSynonym>FAC043-Certain Parts of Body Have Pain</nciodm:CDISCSynonym>
                    <nciodm:CDISCDefinition>Functional Assessment of Cancer Therapy-Lung Symptom Index - I have certain parts of my body where I experience pain.</nciodm:CDISCDefinition>
                    <nciodm:PreferredTerm>FLSI - Certain Parts of Body Have Pain</nciodm:PreferredTerm>
                </EnumeratedItem>
                <EnumeratedItem CodedValue="FAC043-I Am Losing Weight" nciodm:ExtCodeID="C138462">
                    <nciodm:CDISCSynonym>FAC043-I Am Losing Weight</nciodm:CDISCSynonym>
                    <nciodm:CDISCDefinition>Functional Assessment of Cancer Therapy-Lung Symptom Index - I am losing weight.</nciodm:CDISCDefinition>
                    <nciodm:PreferredTerm>FLSI - I Am Losing Weight</nciodm:PreferredTerm>
                </EnumeratedItem>
                <EnumeratedItem CodedValue="FAC043-I Have a Lack of Energy" nciodm:ExtCodeID="C138460">
                    <nciodm:CDISCSynonym>FAC043-I Have a Lack of Energy</nciodm:CDISCSynonym>
                    <nciodm:CDISCDefinition>Functional Assessment of Cancer Therapy-Lung Symptom Index - I have a lack of energy.</nciodm:CDISCDefinition>
                    <nciodm:PreferredTerm>FLSI - I Have a Lack of Energy</nciodm:PreferredTerm>
                </EnumeratedItem>
                <EnumeratedItem CodedValue="FAC043-I Have Been Coughing" nciodm:ExtCodeID="C138463">
                    <nciodm:CDISCSynonym>FAC043-I Have Been Coughing</nciodm:CDISCSynonym>
                    <nciodm:CDISCDefinition>Functional Assessment of Cancer Therapy-Lung Symptom Index - I have been coughing.</nciodm:CDISCDefinition>
                    <nciodm:PreferredTerm>FLSI - I Have Been Coughing</nciodm:PreferredTerm>
                </EnumeratedItem>
                <EnumeratedItem CodedValue="FAC043-I Have Been Short of Breath" nciodm:ExtCodeID="C138459">
                    <nciodm:CDISCSynonym>FAC043-I Have Been Short of Breath</nciodm:CDISCSynonym>
                    <nciodm:CDISCDefinition>Functional Assessment of Cancer Therapy-Lung Symptom Index - I have been short of breath.</nciodm:CDISCDefinition>
                    <nciodm:PreferredTerm>FLSI - I Have Been Short of Breath</nciodm:PreferredTerm>
                </EnumeratedItem>
                <EnumeratedItem CodedValue="FAC043-I Have Pain" nciodm:ExtCodeID="C138461">
                    <nciodm:CDISCSynonym>FAC043-I Have Pain</nciodm:CDISCSynonym>
                    <nciodm:CDISCDefinition>Functional Assessment of Cancer Therapy-Lung Symptom Index - I have pain.</nciodm:CDISCDefinition>
                    <nciodm:PreferredTerm>FLSI - I Have Pain</nciodm:PreferredTerm>
                </EnumeratedItem>
                <nciodm:CDISCSubmissionValue>FAC043TN</nciodm:CDISCSubmissionValue>
                <nciodm:CDISCSynonym>Functional Assessment of Cancer Therapy-Lung Symptom Index Questionnaire Test Name</nciodm:CDISCSynonym>
                <nciodm:PreferredTerm>CDISC Questionnaire FLSI Test Name Terminology</nciodm:PreferredTerm>
            </CodeList>
            
