<CodeList xmlns="http://www.cdisc.org/ns/odm/v1.3" xmlns:nciodm="http://ncicb.nci.nih.gov/xml/odm/EVS/CDISC" xmlns:xs="http://www.w3.org/2001/XMLSchema-instance" OID="CL.C132263.MITSCD" Name="SDTM Microscopic Findings Test Code" DataType="text" nciodm:ExtCodeID="C132263" nciodm:CodeListExtensible="Yes">
                <Description>
                    <TranslatedText xml:lang="en">Terminology for the test codes concerned with the clinical findings from a specimen that are visible by microscopic analysis.</TranslatedText>
                </Description>
                <EnumeratedItem CodedValue="ABNCE" nciodm:ExtCodeID="C111124">
                    <nciodm:CDISCSynonym>Abnormal Cells</nciodm:CDISCSynonym>
                    <nciodm:CDISCDefinition>A measurement of the abnormal cells in a biological specimen.</nciodm:CDISCDefinition>
                    <nciodm:PreferredTerm>Abnormal Cell Count</nciodm:PreferredTerm>
                </EnumeratedItem>
                <EnumeratedItem CodedValue="AMACR" nciodm:ExtCodeID="C132364">
                    <nciodm:CDISCSynonym>Alpha-Methylacyl Coenzyme A Racemase</nciodm:CDISCSynonym>
                    <nciodm:CDISCDefinition>A measurement of the alpha-methylacyl coenzyme A racemase in a biological specimen.</nciodm:CDISCDefinition>
                    <nciodm:PreferredTerm>Alpha-Methylacyl Coenzyme A Racemase Measurement</nciodm:PreferredTerm>
                </EnumeratedItem>
                <EnumeratedItem CodedValue="ARTLRHYT" nciodm:ExtCodeID="C135463">
                    <nciodm:CDISCSynonym>Arteriolar Hyaline Thickening</nciodm:CDISCSynonym>
                    <nciodm:CDISCDefinition>An evaluation of the arteriolar hyaline thickening of vessels in a biological specimen.</nciodm:CDISCDefinition>
                    <nciodm:PreferredTerm>Arteriolar Hyaline Thickening Assessment</nciodm:PreferredTerm>
                </EnumeratedItem>
                <EnumeratedItem CodedValue="BANFRDX" nciodm:ExtCodeID="C135464">
                    <nciodm:CDISCSynonym>Banff Diagnostic Category Renal</nciodm:CDISCSynonym>
                    <nciodm:CDISCDefinition>The histologic evaluation and diagnosis of the type of renal allograft rejection based on kidney biopsies and the Banff Working Classification from the Banff Foundation for Allograft Pathology. (NCI)</nciodm:CDISCDefinition>
                    <nciodm:PreferredTerm>Banff Renal Diagnostic Category Assessment</nciodm:PreferredTerm>
                </EnumeratedItem>
                <EnumeratedItem CodedValue="BD2" nciodm:ExtCodeID="C122102">
                    <nciodm:CDISCSynonym>Beta-defensin 2</nciodm:CDISCSynonym>
                    <nciodm:CDISCDefinition>A measurement of the beta-defensin 2 in a biological specimen.</nciodm:CDISCDefinition>
                    <nciodm:PreferredTerm>Beta-defensin 2 Measurement</nciodm:PreferredTerm>
                </EnumeratedItem>
                <EnumeratedItem CodedValue="BDKRB1" nciodm:ExtCodeID="C139099">
                    <nciodm:CDISCSynonym>BK-1 Receptor</nciodm:CDISCSynonym>
                    <nciodm:CDISCSynonym>Bradykinin Receptor B1</nciodm:CDISCSynonym>
                    <nciodm:CDISCDefinition>A measurement of the bradykinin receptor B1 in a biological specimen.</nciodm:CDISCDefinition>
                    <nciodm:PreferredTerm>Bradykinin Receptor B1 Measurement</nciodm:PreferredTerm>
                </EnumeratedItem>
                <EnumeratedItem CodedValue="BRCA1" nciodm:ExtCodeID="C123555">
                    <nciodm:CDISCSynonym>Breast Cancer Type 1 Susceptibility Prot</nciodm:CDISCSynonym>
                    <nciodm:CDISCDefinition>A measurement of BRCA1 protein in a biological specimen.</nciodm:CDISCDefinition>
                    <nciodm:PreferredTerm>Breast Cancer Type 1 Susceptibility Protein Measurement</nciodm:PreferredTerm>
                </EnumeratedItem>
                <EnumeratedItem CodedValue="CANCLLTY" nciodm:ExtCodeID="C123556">
                    <nciodm:CDISCSynonym>Cancer Cellularity</nciodm:CDISCSynonym>
                    <nciodm:CDISCDefinition>A relative measurement (ratio or percentage) of the neoplastic cells to total cells in a biological specimen.</nciodm:CDISCDefinition>
                    <nciodm:PreferredTerm>Cancer Cellularity Measurement</nciodm:PreferredTerm>
                </EnumeratedItem>
                <EnumeratedItem CodedValue="CDX2AG" nciodm:ExtCodeID="C139098">
                    <nciodm:CDISCSynonym>CDX2 Antigen</nciodm:CDISCSynonym>
                    <nciodm:CDISCDefinition>A measurement of the CDX2 antigen in a biological specimen.</nciodm:CDISCDefinition>
                    <nciodm:PreferredTerm>CDX2 Antigen Measurement</nciodm:PreferredTerm>
                </EnumeratedItem>
                <EnumeratedItem CodedValue="CELLDIFF" nciodm:ExtCodeID="C132430">
                    <nciodm:CDISCSynonym>Cellular Differentiation</nciodm:CDISCSynonym>
                    <nciodm:CDISCDefinition>An evaluation of cellular maturity and specialization in a biological specimen.</nciodm:CDISCDefinition>
                    <nciodm:PreferredTerm>Cellular Differentiation Assessment</nciodm:PreferredTerm>
                </EnumeratedItem>
                <EnumeratedItem CodedValue="CORBIOMN" nciodm:ExtCodeID="C139092">
                    <nciodm:CDISCSynonym>Number of Malignant Biopsy Cores</nciodm:CDISCSynonym>
                    <nciodm:CDISCDefinition>A measurement of the total number of core biopsies that contain malignant tissue. (NCI)</nciodm:CDISCDefinition>
                    <nciodm:PreferredTerm>Number of Malignant Biopsy Cores</nciodm:PreferredTerm>
                </EnumeratedItem>
                <EnumeratedItem CodedValue="CY16" nciodm:ExtCodeID="C127763">
                    <nciodm:CDISCSynonym>Cytokeratin 16</nciodm:CDISCSynonym>
                    <nciodm:CDISCDefinition>A measurement of the cytokeratin 16 in a biological specimen.</nciodm:CDISCDefinition>
                    <nciodm:PreferredTerm>Cytokeratin 16 Measurement</nciodm:PreferredTerm>
                </EnumeratedItem>
                <EnumeratedItem CodedValue="DCLAMP" nciodm:ExtCodeID="C127764">
                    <nciodm:CDISCSynonym>Dendritic Cell-Lysosomal-Assoc Memb Prot</nciodm:CDISCSynonym>
                    <nciodm:CDISCDefinition>A measurement of the dendritic cell-lysosomal-associated membrane protein in a biological specimen.</nciodm:CDISCDefinition>
                    <nciodm:PreferredTerm>Dendritic Cell Lysosomal-Associated Membrane Protein Measurement</nciodm:PreferredTerm>
                </EnumeratedItem>
                <EnumeratedItem CodedValue="ESTRCPT" nciodm:ExtCodeID="C112274">
                    <nciodm:CDISCSynonym>ER</nciodm:CDISCSynonym>
                    <nciodm:CDISCSynonym>ESR</nciodm:CDISCSynonym>
                    <nciodm:CDISCSynonym>Estrogen Receptor</nciodm:CDISCSynonym>
                    <nciodm:CDISCSynonym>Oestrogen Receptor</nciodm:CDISCSynonym>
                    <nciodm:CDISCDefinition>A measurement of estrogen receptor protein in a biological specimen.</nciodm:CDISCDefinition>
                    <nciodm:PreferredTerm>Estrogen Receptor Measurement</nciodm:PreferredTerm>
                </EnumeratedItem>
                <EnumeratedItem CodedValue="FIBROSIS" nciodm:ExtCodeID="C127765">
                    <nciodm:CDISCSynonym>Fibrosis</nciodm:CDISCSynonym>
                    <nciodm:CDISCDefinition>An evaluation of fibrosis in a biological specimen.</nciodm:CDISCDefinition>
                    <nciodm:PreferredTerm>Fibrosis Assessment</nciodm:PreferredTerm>
                </EnumeratedItem>
                <EnumeratedItem CodedValue="FOLH1" nciodm:ExtCodeID="C132431">
                    <nciodm:CDISCSynonym>Folate Hydrolase 1</nciodm:CDISCSynonym>
                    <nciodm:CDISCDefinition>A measurement of the folate hydrolase 1 in a biological specimen.</nciodm:CDISCDefinition>
                    <nciodm:PreferredTerm>Folate Hydrolase 1 Measurement</nciodm:PreferredTerm>
                </EnumeratedItem>
                <EnumeratedItem CodedValue="GLOMLTIS" nciodm:ExtCodeID="C135465">
                    <nciodm:CDISCSynonym>Glomerulitis</nciodm:CDISCSynonym>
                    <nciodm:CDISCDefinition>An evaluation of glomerulitis in a biological specimen.</nciodm:CDISCDefinition>
                    <nciodm:PreferredTerm>Glomerulitis Assessment</nciodm:PreferredTerm>
                </EnumeratedItem>
                <EnumeratedItem CodedValue="GLOMPATH" nciodm:ExtCodeID="C135466">
                    <nciodm:CDISCSynonym>Glomerulopathy</nciodm:CDISCSynonym>
                    <nciodm:CDISCDefinition>An evaluation of glomerulopathy in a biological specimen.</nciodm:CDISCDefinition>
                    <nciodm:PreferredTerm>Glomerulopathy Assessment</nciodm:PreferredTerm>
                </EnumeratedItem>
                <EnumeratedItem CodedValue="HER2" nciodm:ExtCodeID="C112312">
                    <nciodm:CDISCSynonym>ERBB2</nciodm:CDISCSynonym>
                    <nciodm:CDISCSynonym>HER2/NEU</nciodm:CDISCSynonym>
                    <nciodm:CDISCSynonym>Human Epidermal Growth Factor Receptor 2</nciodm:CDISCSynonym>
                    <nciodm:CDISCDefinition>A measurement of HER2 protein in a biological specimen.</nciodm:CDISCDefinition>
                    <nciodm:PreferredTerm>Human Epidermal Growth Factor Receptor 2 Measurement</nciodm:PreferredTerm>
                </EnumeratedItem>
                <EnumeratedItem CodedValue="IENFDEN" nciodm:ExtCodeID="C142347">
                    <nciodm:CDISCSynonym>Intraepidermal Nerve Fiber Density</nciodm:CDISCSynonym>
                    <nciodm:CDISCDefinition>A measurement of the intraepidermal nerve fiber density in a biological specimen.</nciodm:CDISCDefinition>
                    <nciodm:PreferredTerm>Intraepidermal Nerve Fiber Density</nciodm:PreferredTerm>
                </EnumeratedItem>
                <EnumeratedItem CodedValue="INTMART" nciodm:ExtCodeID="C135467">
                    <nciodm:CDISCSynonym>Intimal Arteritis</nciodm:CDISCSynonym>
                    <nciodm:CDISCDefinition>An evaluation of intimal arteritis in a biological specimen.</nciodm:CDISCDefinition>
                    <nciodm:PreferredTerm>Intimal Arteritis Assessment</nciodm:PreferredTerm>
                </EnumeratedItem>
                <EnumeratedItem CodedValue="INTSFBRO" nciodm:ExtCodeID="C135468">
                    <nciodm:CDISCSynonym>Interstitial Fibrosis</nciodm:CDISCSynonym>
                    <nciodm:CDISCDefinition>An evaluation of interstitial fibrosis in a biological specimen.</nciodm:CDISCDefinition>
                    <nciodm:PreferredTerm>Interstitial Fibrosis Assessment</nciodm:PreferredTerm>
                </EnumeratedItem>
                <EnumeratedItem CodedValue="KI67" nciodm:ExtCodeID="C123557">
                    <nciodm:CDISCSynonym>Ki-67</nciodm:CDISCSynonym>
                    <nciodm:CDISCDefinition>A measurement of the Ki-67 protein in a biological specimen.</nciodm:CDISCDefinition>
                    <nciodm:PreferredTerm>Ki67 Measurement</nciodm:PreferredTerm>
                </EnumeratedItem>
                <EnumeratedItem CodedValue="LCN2" nciodm:ExtCodeID="C106539">
                    <nciodm:CDISCSynonym>Lipocalin-2</nciodm:CDISCSynonym>
                    <nciodm:CDISCDefinition>A measurement of lipocalin-2 in a biological specimen.</nciodm:CDISCDefinition>
                    <nciodm:PreferredTerm>Lipocalin-2 Measurement</nciodm:PreferredTerm>
                </EnumeratedItem>
                <EnumeratedItem CodedValue="LYMPHINV" nciodm:ExtCodeID="C127766">
                    <nciodm:CDISCSynonym>Lymphatic Invasion</nciodm:CDISCSynonym>
                    <nciodm:CDISCDefinition>An evaluation of lymphatic invasion in a biological specimen.</nciodm:CDISCDefinition>
                    <nciodm:PreferredTerm>Lymphatic Invasion Assessment</nciodm:PreferredTerm>
                </EnumeratedItem>
                <EnumeratedItem CodedValue="MCINTINF" nciodm:ExtCodeID="C135469">
                    <nciodm:CDISCSynonym>Mononuc Cell Interstitial Inflammation</nciodm:CDISCSynonym>
                    <nciodm:CDISCDefinition>An evaluation of mononuclear cell interstitial inflammation in a biological specimen.</nciodm:CDISCDefinition>
                    <nciodm:PreferredTerm>Mononuclear Cell Interstitial Inflammation Assessment</nciodm:PreferredTerm>
                </EnumeratedItem>
                <EnumeratedItem CodedValue="MIEXAM" nciodm:ExtCodeID="C90424">
                    <nciodm:CDISCSynonym>Microscopic Examination</nciodm:CDISCSynonym>
                    <nciodm:CDISCDefinition>An assessment by microscope (e.g., light, electron, confocal, etc.).</nciodm:CDISCDefinition>
                    <nciodm:PreferredTerm>Microscopic Examination</nciodm:PreferredTerm>
                </EnumeratedItem>
                <EnumeratedItem CodedValue="MITOFIG" nciodm:ExtCodeID="C135470">
                    <nciodm:CDISCSynonym>Mitotic Figure</nciodm:CDISCSynonym>
                    <nciodm:CDISCDefinition>A measurement of the cells containing mitotic figures in a biological specimen.</nciodm:CDISCDefinition>
                    <nciodm:PreferredTerm>Mitotic Figure Assessment</nciodm:PreferredTerm>
                </EnumeratedItem>
                <EnumeratedItem CodedValue="MLH1" nciodm:ExtCodeID="C139094">
                    <nciodm:CDISCSynonym>MutL Homolog 1</nciodm:CDISCSynonym>
                    <nciodm:CDISCDefinition>A measurement of the MLH1 mismatch repair protein in a biological specimen.</nciodm:CDISCDefinition>
                    <nciodm:PreferredTerm>MutL Homolog 1 Measurement</nciodm:PreferredTerm>
                </EnumeratedItem>
                <EnumeratedItem CodedValue="MMRPINTP" nciodm:ExtCodeID="C139093">
                    <nciodm:CDISCSynonym>Mismatch Repair Proteins Interpretation</nciodm:CDISCSynonym>
                    <nciodm:CDISCDefinition>The determination of the meaning of protein expression assessments across multiple mismatch repair proteins.</nciodm:CDISCDefinition>
                    <nciodm:PreferredTerm>Mismatch Repair Proteins Interpretation</nciodm:PreferredTerm>
                </EnumeratedItem>
                <EnumeratedItem CodedValue="MSH2" nciodm:ExtCodeID="C139095">
                    <nciodm:CDISCSynonym>MutS Homolog 2</nciodm:CDISCSynonym>
                    <nciodm:CDISCDefinition>A measurement of the MSH2 mismatch repair protein in a biological specimen.</nciodm:CDISCDefinition>
                    <nciodm:PreferredTerm>MutS Homolog 2 Measurement</nciodm:PreferredTerm>
                </EnumeratedItem>
                <EnumeratedItem CodedValue="MSH6" nciodm:ExtCodeID="C139096">
                    <nciodm:CDISCSynonym>MutS Homolog 6</nciodm:CDISCSynonym>
                    <nciodm:CDISCDefinition>A measurement of the MSH6 mismatch repair protein in a biological specimen.</nciodm:CDISCDefinition>
                    <nciodm:PreferredTerm>MutS Homolog 6 Measurement</nciodm:PreferredTerm>
                </EnumeratedItem>
                <EnumeratedItem CodedValue="MSNGMTRX" nciodm:ExtCodeID="C135471">
                    <nciodm:CDISCSynonym>Mesangial Matrix</nciodm:CDISCSynonym>
                    <nciodm:CDISCDefinition>An evaluation of mesangial matrix in a biological specimen.</nciodm:CDISCDefinition>
                    <nciodm:PreferredTerm>Mesangial Matrix Assessment</nciodm:PreferredTerm>
                </EnumeratedItem>
                <EnumeratedItem CodedValue="NKX2_1" nciodm:ExtCodeID="C123558">
                    <nciodm:CDISCSynonym>NK2 Homeobox 1</nciodm:CDISCSynonym>
                    <nciodm:CDISCSynonym>TEBP</nciodm:CDISCSynonym>
                    <nciodm:CDISCSynonym>TTF1</nciodm:CDISCSynonym>
                    <nciodm:CDISCSynonym>Thyroid Transcription Factor 1</nciodm:CDISCSynonym>
                    <nciodm:CDISCDefinition>A measurement of NK2 homeobox 1 protein in a biological specimen.</nciodm:CDISCDefinition>
                    <nciodm:PreferredTerm>NK2 Homeobox 1 Measurement</nciodm:PreferredTerm>
                </EnumeratedItem>
                <EnumeratedItem CodedValue="NORMCECE" nciodm:ExtCodeID="C127767">
                    <nciodm:CDISCSynonym>Normal Cells/Total Cells</nciodm:CDISCSynonym>
                    <nciodm:CDISCDefinition>A relative measurement (ratio or percentage) of the normal cells to total cells in a biological specimen.</nciodm:CDISCDefinition>
                    <nciodm:PreferredTerm>Normal Cell to Total Cell Ratio Measurement</nciodm:PreferredTerm>
                </EnumeratedItem>
                <EnumeratedItem CodedValue="PAP" nciodm:ExtCodeID="C80204">
                    <nciodm:CDISCSynonym>Prostatic Acid Phosphatase</nciodm:CDISCSynonym>
                    <nciodm:CDISCDefinition>A measurement of the prostatic acid phosphatase in a biological specimen.</nciodm:CDISCDefinition>
                    <nciodm:PreferredTerm>Prostatic Acid Phosphatase Measurement</nciodm:PreferredTerm>
                </EnumeratedItem>
                <EnumeratedItem CodedValue="PAX3FKHR" nciodm:ExtCodeID="C142348">
                    <nciodm:CDISCSynonym>PAX3-FKHR Fusion Protein</nciodm:CDISCSynonym>
                    <nciodm:CDISCDefinition>A measurement of the PAX3-FKHR fusion protein in a biological specimen.</nciodm:CDISCDefinition>
                    <nciodm:PreferredTerm>PAX3-FKHR Fusion Protein Measurement</nciodm:PreferredTerm>
                </EnumeratedItem>
                <EnumeratedItem CodedValue="PCTISCA" nciodm:ExtCodeID="C123559">
                    <nciodm:CDISCSynonym>Percentage of In situ Carcinoma</nciodm:CDISCSynonym>
                    <nciodm:CDISCDefinition>A relative measurement (percentage) of in situ component present in a carcinoma compared to the entire malignant cellular proliferation. (NCI)</nciodm:CDISCDefinition>
                    <nciodm:PreferredTerm>Percentage of in situ Carcinoma</nciodm:PreferredTerm>
                </EnumeratedItem>
                <EnumeratedItem CodedValue="PECAM1" nciodm:ExtCodeID="C135472">
                    <nciodm:CDISCSynonym>CD31 Antigen</nciodm:CDISCSynonym>
                    <nciodm:CDISCSynonym>Platelet And Endothelial Cell Adhesion Molecule 1</nciodm:CDISCSynonym>
                    <nciodm:CDISCSynonym>Platelet Endo Cell Adhesion Molecule 1</nciodm:CDISCSynonym>
                    <nciodm:CDISCDefinition>A measurement of the platelet and endothelial cell adhesion molecule 1 in a biological specimen.</nciodm:CDISCDefinition>
                    <nciodm:PreferredTerm>Platelet Endothelial Cell Adhesion Molecule 1 Measurement</nciodm:PreferredTerm>
                </EnumeratedItem>
                <EnumeratedItem CodedValue="PMS2" nciodm:ExtCodeID="C139097">
                    <nciodm:CDISCSynonym>PMS1 Homolog 2</nciodm:CDISCSynonym>
                    <nciodm:CDISCDefinition>A measurement of the PMS2 mismatch repair protein in a biological specimen.</nciodm:CDISCDefinition>
                    <nciodm:PreferredTerm>PMS1 Homolog 2 Measurement</nciodm:PreferredTerm>
                </EnumeratedItem>
                <EnumeratedItem CodedValue="PNLINV" nciodm:ExtCodeID="C127768">
                    <nciodm:CDISCSynonym>Perineural Invasion</nciodm:CDISCSynonym>
                    <nciodm:CDISCDefinition>An evaluation of perineural invasion in a biological specimen.</nciodm:CDISCDefinition>
                    <nciodm:PreferredTerm>Perineural Invasion Assessment</nciodm:PreferredTerm>
                </EnumeratedItem>
                <EnumeratedItem CodedValue="PROGESTR" nciodm:ExtCodeID="C117846">
                    <nciodm:CDISCSynonym>NR3C3</nciodm:CDISCSynonym>
                    <nciodm:CDISCSynonym>PR</nciodm:CDISCSynonym>
                    <nciodm:CDISCSynonym>Progesterone Receptor</nciodm:CDISCSynonym>
                    <nciodm:CDISCDefinition>A measurement of the progesterone receptor protein in a biological specimen.</nciodm:CDISCDefinition>
                    <nciodm:PreferredTerm>Progesterone Receptor Measurement</nciodm:PreferredTerm>
                </EnumeratedItem>
                <EnumeratedItem CodedValue="PTBCPLTS" nciodm:ExtCodeID="C135473">
                    <nciodm:CDISCSynonym>Peritubular Capillaritis</nciodm:CDISCSynonym>
                    <nciodm:CDISCDefinition>An evaluation of peritubular capillaritis in a biological specimen.</nciodm:CDISCDefinition>
                    <nciodm:PreferredTerm>Peritubular Capillaritis Assessment</nciodm:PreferredTerm>
                </EnumeratedItem>
                <EnumeratedItem CodedValue="PTEN" nciodm:ExtCodeID="C147470">
                    <nciodm:CDISCSynonym>Phosphatase and Tensin Homolog</nciodm:CDISCSynonym>
                    <nciodm:CDISCDefinition>A measurement of the phosphatase and tensin homolog in a biological specimen.</nciodm:CDISCDefinition>
                    <nciodm:PreferredTerm>Phosphatase and Tensin Homolog Measurement</nciodm:PreferredTerm>
                </EnumeratedItem>
                <EnumeratedItem CodedValue="S100A7" nciodm:ExtCodeID="C127769">
                    <nciodm:CDISCSynonym>S100 Calcium Binding Protein A7</nciodm:CDISCSynonym>
                    <nciodm:CDISCDefinition>A measurement of the S100 calcium binding protein A7 in a biological specimen.</nciodm:CDISCDefinition>
                    <nciodm:PreferredTerm>S100 Calcium Binding Protein A7 Measurement</nciodm:PreferredTerm>
                </EnumeratedItem>
                <EnumeratedItem CodedValue="SGMGSTAT" nciodm:ExtCodeID="C123560">
                    <nciodm:CDISCSynonym>Surgical Margins Status</nciodm:CDISCSynonym>
                    <nciodm:CDISCDefinition>The determination of the presence of actual or potential neoplastic tissue which has been left outside the boundary of a resected specimen within the patient. (NCI)</nciodm:CDISCDefinition>
                    <nciodm:PreferredTerm>Surgical Margins Status</nciodm:PreferredTerm>
                </EnumeratedItem>
                <EnumeratedItem CodedValue="STRMCECE" nciodm:ExtCodeID="C127770">
                    <nciodm:CDISCSynonym>Stromal Cells/Total Cells</nciodm:CDISCSynonym>
                    <nciodm:CDISCDefinition>A relative measurement (ratio or percentage) of the stromal cells to total cells in a biological specimen.</nciodm:CDISCDefinition>
                    <nciodm:PreferredTerm>Stromal Cell to Total Cell Ratio Measurement</nciodm:PreferredTerm>
                </EnumeratedItem>
                <EnumeratedItem CodedValue="THICK" nciodm:ExtCodeID="C41145">
                    <nciodm:CDISCSynonym>Thickness</nciodm:CDISCSynonym>
                    <nciodm:CDISCDefinition>The dimension between two surfaces of an object, usually the smallest dimension as opposed to the width or the length.</nciodm:CDISCDefinition>
                    <nciodm:PreferredTerm>Thickness</nciodm:PreferredTerm>
                </EnumeratedItem>
                <EnumeratedItem CodedValue="TUBATRO" nciodm:ExtCodeID="C135474">
                    <nciodm:CDISCSynonym>Tubular Atrophy</nciodm:CDISCSynonym>
                    <nciodm:CDISCDefinition>An evaluation of tubular atrophy in a biological specimen.</nciodm:CDISCDefinition>
                    <nciodm:PreferredTerm>Tubular Atrophy Assessment</nciodm:PreferredTerm>
                </EnumeratedItem>
                <EnumeratedItem CodedValue="TUBULTIS" nciodm:ExtCodeID="C135475">
                    <nciodm:CDISCSynonym>Tubulitis</nciodm:CDISCSynonym>
                    <nciodm:CDISCDefinition>An evaluation of tubulitis in a biological specimen.</nciodm:CDISCDefinition>
                    <nciodm:PreferredTerm>Tubulitis Assessment</nciodm:PreferredTerm>
                </EnumeratedItem>
                <EnumeratedItem CodedValue="TUMCECE" nciodm:ExtCodeID="C127771">
                    <nciodm:CDISCSynonym>Tumor Cells/Total Cells</nciodm:CDISCSynonym>
                    <nciodm:CDISCDefinition>A relative measurement (ratio or percentage) of the tumor cells to total cells in a biological specimen.</nciodm:CDISCDefinition>
                    <nciodm:PreferredTerm>Tumor Cell to Total Cell Ratio Measurement</nciodm:PreferredTerm>
                </EnumeratedItem>
                <EnumeratedItem CodedValue="VASINV" nciodm:ExtCodeID="C127772">
                    <nciodm:CDISCSynonym>Vascular Invasion</nciodm:CDISCSynonym>
                    <nciodm:CDISCDefinition>An evaluation of vascular invasion in a biological specimen.</nciodm:CDISCDefinition>
                    <nciodm:PreferredTerm>Vascular Invasion Assessment</nciodm:PreferredTerm>
                </EnumeratedItem>
                <EnumeratedItem CodedValue="VFBINTMT" nciodm:ExtCodeID="C135476">
                    <nciodm:CDISCSynonym>Vascular Fibrous Intimal Thickening</nciodm:CDISCSynonym>
                    <nciodm:CDISCDefinition>An evaluation of the fibrointimal thickening of vessels in a biological specimen.</nciodm:CDISCDefinition>
                    <nciodm:PreferredTerm>Vascular Fibrous Intimal Thickening Assessment</nciodm:PreferredTerm>
                </EnumeratedItem>
                <nciodm:CDISCSubmissionValue>MITSCD</nciodm:CDISCSubmissionValue>
                <nciodm:CDISCSynonym>SDTM Microscopic Findings Test Code</nciodm:CDISCSynonym>
                <nciodm:PreferredTerm>CDISC SDTM Microscopic Findings Test Code Terminology</nciodm:PreferredTerm>
            </CodeList>
            
