<CodeList xmlns="http://www.cdisc.org/ns/odm/v1.3" xmlns:nciodm="http://ncicb.nci.nih.gov/xml/odm/EVS/CDISC" xmlns:xs="http://www.w3.org/2001/XMLSchema-instance" OID="CL.C120525.ISTESTCD" Name="Immunogenicity Specimen Assessments Test Code" DataType="text" nciodm:ExtCodeID="C120525" nciodm:CodeListExtensible="Yes">
                <Description>
                    <TranslatedText xml:lang="en">Terminology relevant to the immunogenicity specimen test codes of the CDISC Study Data Tabulation Model.</TranslatedText>
                </Description>
                <EnumeratedItem CodedValue="EVIGGASC" nciodm:ExtCodeID="C132360">
                    <nciodm:CDISCSynonym>EBOV Specific IgG AB Secreting Cells</nciodm:CDISCSynonym>
                    <nciodm:CDISCDefinition>A measurement of the Ebola virus specific IgG antibody secreting cells in a biological specimen.</nciodm:CDISCDefinition>
                    <nciodm:PreferredTerm>Ebola Virus Specific IgG Antibody Secreting Cell Count</nciodm:PreferredTerm>
                </EnumeratedItem>
                <EnumeratedItem CodedValue="EVIGMASC" nciodm:ExtCodeID="C132361">
                    <nciodm:CDISCSynonym>EBOV Specific IgM AB Secreting Cells</nciodm:CDISCSynonym>
                    <nciodm:CDISCDefinition>A measurement of the Ebola virus specific IgM antibody secreting cells in a biological specimen.</nciodm:CDISCDefinition>
                    <nciodm:PreferredTerm>Ebola Virus Specific IgM Antibody Secreting Cell Count</nciodm:PreferredTerm>
                </EnumeratedItem>
                <EnumeratedItem CodedValue="H1IGGASC" nciodm:ExtCodeID="C120622">
                    <nciodm:CDISCSynonym>H1 Specific IgG ASCs</nciodm:CDISCSynonym>
                    <nciodm:CDISCSynonym>H1 Specific IgG Antibody Secreting Cells</nciodm:CDISCSynonym>
                    <nciodm:CDISCDefinition>A measurement of the H1 specific IgG antibody secreting cells in a biological specimen.</nciodm:CDISCDefinition>
                    <nciodm:PreferredTerm>Influenza Hemagglutinin 1 Specific IgG Antibody Secreting Cell Count</nciodm:PreferredTerm>
                </EnumeratedItem>
                <EnumeratedItem CodedValue="H3IGGASC" nciodm:ExtCodeID="C120623">
                    <nciodm:CDISCSynonym>H3 Specific IgG ASCs</nciodm:CDISCSynonym>
                    <nciodm:CDISCSynonym>H3 Specific IgG Antibody Secreting Cells</nciodm:CDISCSynonym>
                    <nciodm:CDISCDefinition>A measurement of the H3 specific IgG antibody secreting cells in a biological specimen.</nciodm:CDISCDefinition>
                    <nciodm:PreferredTerm>Influenza Hemagglutinin 3 Specific IgG Antibody Secreting Cell Count</nciodm:PreferredTerm>
                </EnumeratedItem>
                <EnumeratedItem CodedValue="IGMABSC" nciodm:ExtCodeID="C132362">
                    <nciodm:CDISCSynonym>IgM Antibody Secreting Cells</nciodm:CDISCSynonym>
                    <nciodm:CDISCDefinition>A measurement of the total IgM antibody secreting cells in a biological specimen.</nciodm:CDISCDefinition>
                    <nciodm:PreferredTerm>IgM Antibody Secreting Cell Count</nciodm:PreferredTerm>
                </EnumeratedItem>
                <EnumeratedItem CodedValue="TIGGASC" nciodm:ExtCodeID="C120624">
                    <nciodm:CDISCSynonym>Total IgG ASCs</nciodm:CDISCSynonym>
                    <nciodm:CDISCSynonym>Total IgG Antibody Secreting Cells</nciodm:CDISCSynonym>
                    <nciodm:CDISCDefinition>A measurement of the total IgG antibody secreting cells in a biological specimen.</nciodm:CDISCDefinition>
                    <nciodm:PreferredTerm>Total IgG Antibody Secreting Cell Count</nciodm:PreferredTerm>
                </EnumeratedItem>
                <nciodm:CDISCSubmissionValue>ISTESTCD</nciodm:CDISCSubmissionValue>
                <nciodm:CDISCSynonym>Immunogenicity Specimen Assessments Test Code</nciodm:CDISCSynonym>
                <nciodm:PreferredTerm>CDISC SDTM Immunogenicity Specimen Assessments Test Code Terminology</nciodm:PreferredTerm>
            </CodeList>
            
