<CodeList xmlns="http://www.cdisc.org/ns/odm/v1.3" xmlns:nciodm="http://ncicb.nci.nih.gov/xml/odm/EVS/CDISC" xmlns:xs="http://www.w3.org/2001/XMLSchema-instance" OID="CL.C129939.DKFATS" Name="Diabetic Kidney Disease Findings About Test Name" DataType="text" nciodm:ExtCodeID="C129939" nciodm:CodeListExtensible="Yes">
                <Description>
                    <TranslatedText xml:lang="en">Terminology relevant to the test names that describe findings about a diabetic kidney disease event or intervention.</TranslatedText>
                </Description>
                <EnumeratedItem CodedValue="Number of Events" nciodm:ExtCodeID="C130057">
                    <nciodm:CDISCSynonym>Number of Events</nciodm:CDISCSynonym>
                    <nciodm:CDISCDefinition>The total number of events that have occurred.</nciodm:CDISCDefinition>
                    <nciodm:PreferredTerm>Number of Events</nciodm:PreferredTerm>
                </EnumeratedItem>
                <nciodm:CDISCSubmissionValue>DKFATS</nciodm:CDISCSubmissionValue>
                <nciodm:CDISCSynonym>Diabetic Kidney Disease Findings About Test Name</nciodm:CDISCSynonym>
                <nciodm:PreferredTerm>CDISC SDTM Diabetic Kidney Findings About Test Name Terminology</nciodm:PreferredTerm>
            </CodeList>
            
