<CodeList xmlns="http://www.cdisc.org/ns/odm/v1.3" xmlns:nciodm="http://ncicb.nci.nih.gov/xml/odm/EVS/CDISC" xmlns:xs="http://www.w3.org/2001/XMLSchema-instance" OID="CL.C124675.WHIVS2TN" Name="WHO Clinical Staging of HIV/AIDS for Children Clinical Classification Test Name" DataType="text" nciodm:ExtCodeID="C124675" nciodm:CodeListExtensible="No">
                <Description>
                    <TranslatedText xml:lang="en">WHO Clinical Staging of HIV/AIDS for Children test name.</TranslatedText>
                </Description>
                <EnumeratedItem CodedValue="WHIVS2-WHO Clinical Stage of HIV/AIDS" nciodm:ExtCodeID="C124778">
                    <nciodm:CDISCSynonym>WHIVS2-WHO Clinical Stage of HIV/AIDS</nciodm:CDISCSynonym>
                    <nciodm:CDISCDefinition>WHO Clinical Staging of HIV/AIDS for Children - WHO clinical stage of HIV/AIDS.</nciodm:CDISCDefinition>
                    <nciodm:PreferredTerm>WHO Clinical Staging of HIV/AIDS for Children - WHO Clinical Stage of HIV/AIDS</nciodm:PreferredTerm>
                </EnumeratedItem>
                <nciodm:CDISCSubmissionValue>WHIVS2TN</nciodm:CDISCSubmissionValue>
                <nciodm:CDISCSynonym>WHO Clinical Staging of HIV/AIDS for Children Clinical Classification Test Name</nciodm:CDISCSynonym>
                <nciodm:PreferredTerm>CDISC Clinical Classification WHO Clinical Staging of HIV/AIDS for Children Test Name Terminology</nciodm:PreferredTerm>
            </CodeList>
            
