<CodeList xmlns="http://www.cdisc.org/ns/odm/v1.3" xmlns:nciodm="http://ncicb.nci.nih.gov/xml/odm/EVS/CDISC" xmlns:xs="http://www.w3.org/2001/XMLSchema-instance" OID="CL.C141662.A4STR1TN" Name="4 Stair Ascend Functional Test Test Name" DataType="text" nciodm:ExtCodeID="C141662" nciodm:CodeListExtensible="No">
                <Description>
                    <TranslatedText xml:lang="en">4 Stair Ascend test name.</TranslatedText>
                </Description>
                <EnumeratedItem CodedValue="A4STR1-Test Grade" nciodm:ExtCodeID="C141707">
                    <nciodm:CDISCSynonym>A4STR1-Test Grade</nciodm:CDISCSynonym>
                    <nciodm:CDISCDefinition>4 Stair Ascend - Test grade.</nciodm:CDISCDefinition>
                    <nciodm:PreferredTerm>4 Stair Ascend - Test Grade</nciodm:PreferredTerm>
                </EnumeratedItem>
                <EnumeratedItem CodedValue="A4STR1-Time to Ascend 4 Stairs" nciodm:ExtCodeID="C141706">
                    <nciodm:CDISCSynonym>A4STR1-Time to Ascend 4 Stairs</nciodm:CDISCSynonym>
                    <nciodm:CDISCDefinition>4 Stair Ascend - Time taken to ascend 4 stairs.</nciodm:CDISCDefinition>
                    <nciodm:PreferredTerm>4 Stair Ascend - Time to Ascend 4 Stairs</nciodm:PreferredTerm>
                </EnumeratedItem>
                <nciodm:CDISCSubmissionValue>A4STR1TN</nciodm:CDISCSubmissionValue>
                <nciodm:CDISCSynonym>4 Stair Ascend Functional Test Test Name</nciodm:CDISCSynonym>
                <nciodm:PreferredTerm>CDISC Functional Test 4 Stair Ascend Test Name Terminology</nciodm:PreferredTerm>
            </CodeList>
            
