<CodeList xmlns="http://www.cdisc.org/ns/odm/v1.3" xmlns:nciodm="http://ncicb.nci.nih.gov/xml/odm/EVS/CDISC" xmlns:xs="http://www.w3.org/2001/XMLSchema-instance" OID="CL.C138236.PQL17TN" Name="Pediatric Quality of Life Neuromuscular Module Acute Version 3 Young Child Parent Report Questionnaire Test Name" DataType="text" nciodm:ExtCodeID="C138236" nciodm:CodeListExtensible="No">
                <Description>
                    <TranslatedText xml:lang="en">Pediatric Quality of Life Neuromuscular Module Acute Version 3 Young Child Parent Report test name.</TranslatedText>
                </Description>
                <EnumeratedItem CodedValue="PQL17-Back Feels Stiff" nciodm:ExtCodeID="C138595">
                    <nciodm:CDISCSynonym>PQL17-Back Feels Stiff</nciodm:CDISCSynonym>
                    <nciodm:CDISCDefinition>Pediatric Quality of Life Neuromuscular Module Acute Version 3 Young Child Parent Report - In the past 7 days, how much of a problem has this been for your child: My child's back feels stiff.</nciodm:CDISCDefinition>
                    <nciodm:PreferredTerm>PedsQL Neuromuscular Module Acute Version 3.0 Parent Report for Young Child - Back Feels Stiff</nciodm:PreferredTerm>
                </EnumeratedItem>
                <EnumeratedItem CodedValue="PQL17-Do Not Have Equipment Need" nciodm:ExtCodeID="C138614">
                    <nciodm:CDISCSynonym>PQL17-Do Not Have Equipment Need</nciodm:CDISCSynonym>
                    <nciodm:CDISCDefinition>Pediatric Quality of Life Neuromuscular Module Acute Version 3 Young Child Parent Report - In the past 7 days, how much of a problem has this been for your child: My child does not have the equipment he or she needs.</nciodm:CDISCDefinition>
                    <nciodm:PreferredTerm>PedsQL Neuromuscular Module Acute Version 3.0 Parent Report for Young Child - Do Not Have Equipment Need</nciodm:PreferredTerm>
                </EnumeratedItem>
                <EnumeratedItem CodedValue="PQL17-Family Has Lot of Problems" nciodm:ExtCodeID="C138613">
                    <nciodm:CDISCSynonym>PQL17-Family Has Lot of Problems</nciodm:CDISCSynonym>
                    <nciodm:CDISCDefinition>Pediatric Quality of Life Neuromuscular Module Acute Version 3 Young Child Parent Report - In the past 7 days, how much of a problem has this been for your child: I think our family has a lot of problems.</nciodm:CDISCDefinition>
                    <nciodm:PreferredTerm>PedsQL Neuromuscular Module Acute Version 3.0 Parent Report for Young Child - Family Has Lot of Problems</nciodm:PreferredTerm>
                </EnumeratedItem>
                <EnumeratedItem CodedValue="PQL17-Feel Tired" nciodm:ExtCodeID="C138594">
                    <nciodm:CDISCSynonym>PQL17-Feel Tired</nciodm:CDISCSynonym>
                    <nciodm:CDISCDefinition>Pediatric Quality of Life Neuromuscular Module Acute Version 3 Young Child Parent Report - In the past 7 days, how much of a problem has this been for your child: My child feels tired.</nciodm:CDISCDefinition>
                    <nciodm:PreferredTerm>PedsQL Neuromuscular Module Acute Version 3.0 Parent Report for Young Child - Feel Tired</nciodm:PreferredTerm>
                </EnumeratedItem>
                <EnumeratedItem CodedValue="PQL17-Get Hurt Accidentally" nciodm:ExtCodeID="C138603">
                    <nciodm:CDISCSynonym>PQL17-Get Hurt Accidentally</nciodm:CDISCSynonym>
                    <nciodm:CDISCDefinition>Pediatric Quality of Life Neuromuscular Module Acute Version 3 Young Child Parent Report - In the past 7 days, how much of a problem has this been for your child: My child gets hurt accidentally.</nciodm:CDISCDefinition>
                    <nciodm:PreferredTerm>PedsQL Neuromuscular Module Acute Version 3.0 Parent Report for Young Child - Get Hurt Accidentally</nciodm:PreferredTerm>
                </EnumeratedItem>
                <EnumeratedItem CodedValue="PQL17-Get Sick Easily" nciodm:ExtCodeID="C138591">
                    <nciodm:CDISCSynonym>PQL17-Get Sick Easily</nciodm:CDISCSynonym>
                    <nciodm:CDISCDefinition>Pediatric Quality of Life Neuromuscular Module Acute Version 3 Young Child Parent Report - In the past 7 days, how much of a problem has this been for your child: My child gets sick easily.</nciodm:CDISCDefinition>
                    <nciodm:PreferredTerm>PedsQL Neuromuscular Module Acute Version 3.0 Parent Report for Young Child - Get Sick Easily</nciodm:PreferredTerm>
                </EnumeratedItem>
                <EnumeratedItem CodedValue="PQL17-Get Sores and/or Rashes" nciodm:ExtCodeID="C138592">
                    <nciodm:CDISCSynonym>PQL17-Get Sores and/or Rashes</nciodm:CDISCSynonym>
                    <nciodm:CDISCDefinition>Pediatric Quality of Life Neuromuscular Module Acute Version 3 Young Child Parent Report - In the past 7 days, how much of a problem has this been for your child: My child gets sores and/or rashes.</nciodm:CDISCDefinition>
                    <nciodm:PreferredTerm>PedsQL Neuromuscular Module Acute Version 3.0 Parent Report for Young Child - Get Sores and/or Rashes</nciodm:PreferredTerm>
                </EnumeratedItem>
                <EnumeratedItem CodedValue="PQL17-Hands Are Weak" nciodm:ExtCodeID="C138597">
                    <nciodm:CDISCSynonym>PQL17-Hands Are Weak</nciodm:CDISCSynonym>
                    <nciodm:CDISCDefinition>Pediatric Quality of Life Neuromuscular Module Acute Version 3 Young Child Parent Report - In the past 7 days, how much of a problem has this been for your child: My child's hands are weak.</nciodm:CDISCDefinition>
                    <nciodm:PreferredTerm>PedsQL Neuromuscular Module Acute Version 3.0 Parent Report for Young Child - Hands Are Weak</nciodm:PreferredTerm>
                </EnumeratedItem>
                <EnumeratedItem CodedValue="PQL17-Hard Ask Doctors/Nurses Questions" nciodm:ExtCodeID="C138608">
                    <nciodm:CDISCSynonym>PQL17-Hard Ask Doctors/Nurses Questions</nciodm:CDISCSynonym>
                    <nciodm:CDISCDefinition>Pediatric Quality of Life Neuromuscular Module Acute Version 3 Young Child Parent Report - In the past 7 days, how much of a problem has this been for your child: It is hard for my child to ask the doctors and nurses questions.</nciodm:CDISCDefinition>
                    <nciodm:PreferredTerm>PedsQL Neuromuscular Module Acute Version 3.0 Parent Report for Young Child - Hard Ask Doctors and Nurses Questions</nciodm:PreferredTerm>
                </EnumeratedItem>
                <EnumeratedItem CodedValue="PQL17-Hard Explain Illness to People" nciodm:ExtCodeID="C138609">
                    <nciodm:CDISCSynonym>PQL17-Hard Explain Illness to People</nciodm:CDISCSynonym>
                    <nciodm:CDISCDefinition>Pediatric Quality of Life Neuromuscular Module Acute Version 3 Young Child Parent Report - In the past 7 days, how much of a problem has this been for your child: It is hard for my child to explain his or her illness to other people.</nciodm:CDISCDefinition>
                    <nciodm:PreferredTerm>PedsQL Neuromuscular Module Acute Version 3.0 Parent Report for Young Child - Hard Explain Illness to People</nciodm:PreferredTerm>
                </EnumeratedItem>
                <EnumeratedItem CodedValue="PQL17-Hard for Family to Plan Activities" nciodm:ExtCodeID="C138610">
                    <nciodm:CDISCSynonym>PQL17-Hard for Family to Plan Activities</nciodm:CDISCSynonym>
                    <nciodm:CDISCDefinition>Pediatric Quality of Life Neuromuscular Module Acute Version 3 Young Child Parent Report - In the past 7 days, how much of a problem has this been for your child: It is hard for our family to plan activities like vacations.</nciodm:CDISCDefinition>
                    <nciodm:PreferredTerm>PedsQL Neuromuscular Module Acute Version 3.0 Parent Report for Young Child - Hard for Family to Plan Activities</nciodm:PreferredTerm>
                </EnumeratedItem>
                <EnumeratedItem CodedValue="PQL17-Hard for Family to Rest" nciodm:ExtCodeID="C138611">
                    <nciodm:CDISCSynonym>PQL17-Hard for Family to Rest</nciodm:CDISCSynonym>
                    <nciodm:CDISCDefinition>Pediatric Quality of Life Neuromuscular Module Acute Version 3 Young Child Parent Report - In the past 7 days, how much of a problem has this been for your child: It is hard for our family to get enough rest.</nciodm:CDISCDefinition>
                    <nciodm:PreferredTerm>PedsQL Neuromuscular Module Acute Version 3.0 Parent Report for Young Child - Hard for Family to Rest</nciodm:PreferredTerm>
                </EnumeratedItem>
                <EnumeratedItem CodedValue="PQL17-Hard Tell Doctors/Nurses How Feel" nciodm:ExtCodeID="C138607">
                    <nciodm:CDISCSynonym>PQL17-Hard Tell Doctors/Nurses How Feel</nciodm:CDISCSynonym>
                    <nciodm:CDISCDefinition>Pediatric Quality of Life Neuromuscular Module Acute Version 3 Young Child Parent Report - In the past 7 days, how much of a problem has this been for your child: It is hard for my child to tell the doctors and nurses how he or she feels.</nciodm:CDISCDefinition>
                    <nciodm:PreferredTerm>PedsQL Neuromuscular Module Acute Version 3.0 Parent Report for Young Child - Hard Tell Doctors and Nurses How Feel</nciodm:PreferredTerm>
                </EnumeratedItem>
                <EnumeratedItem CodedValue="PQL17-Hard to Breathe" nciodm:ExtCodeID="C138590">
                    <nciodm:CDISCSynonym>PQL17-Hard to Breathe</nciodm:CDISCSynonym>
                    <nciodm:CDISCDefinition>Pediatric Quality of Life Neuromuscular Module Acute Version 3 Young Child Parent Report - In the past 7 days, how much of a problem has this been for your child: It is hard for my child to breathe.</nciodm:CDISCDefinition>
                    <nciodm:PreferredTerm>PedsQL Neuromuscular Module Acute Version 3.0 Parent Report for Young Child - Hard to Breathe</nciodm:PreferredTerm>
                </EnumeratedItem>
                <EnumeratedItem CodedValue="PQL17-Hard to Gain/Lose Weight" nciodm:ExtCodeID="C138599">
                    <nciodm:CDISCSynonym>PQL17-Hard to Gain/Lose Weight</nciodm:CDISCSynonym>
                    <nciodm:CDISCDefinition>Pediatric Quality of Life Neuromuscular Module Acute Version 3 Young Child Parent Report - In the past 7 days, how much of a problem has this been for your child: It is hard for my child to gain or lose weight when he or she wants to.</nciodm:CDISCDefinition>
                    <nciodm:PreferredTerm>PedsQL Neuromuscular Module Acute Version 3.0 Parent Report for Young Child - Hard to Gain or Lose Weight</nciodm:PreferredTerm>
                </EnumeratedItem>
                <EnumeratedItem CodedValue="PQL17-Hard to Go Places With Equipment" nciodm:ExtCodeID="C138606">
                    <nciodm:CDISCSynonym>PQL17-Hard to Go Places With Equipment</nciodm:CDISCSynonym>
                    <nciodm:CDISCDefinition>Pediatric Quality of Life Neuromuscular Module Acute Version 3 Young Child Parent Report - In the past 7 days, how much of a problem has this been for your child: It is hard for my child to go places with his or her equipment.</nciodm:CDISCDefinition>
                    <nciodm:PreferredTerm>PedsQL Neuromuscular Module Acute Version 3.0 Parent Report for Young Child - Hard to Go Places With Equipment</nciodm:PreferredTerm>
                </EnumeratedItem>
                <EnumeratedItem CodedValue="PQL17-Hard to Swallow Food" nciodm:ExtCodeID="C138601">
                    <nciodm:CDISCSynonym>PQL17-Hard to Swallow Food</nciodm:CDISCSynonym>
                    <nciodm:CDISCDefinition>Pediatric Quality of Life Neuromuscular Module Acute Version 3 Young Child Parent Report - In the past 7 days, how much of a problem has this been for your child: It is hard for my child to swallow food.</nciodm:CDISCDefinition>
                    <nciodm:PreferredTerm>PedsQL Neuromuscular Module Acute Version 3.0 Parent Report for Young Child - Hard to Swallow Food</nciodm:PreferredTerm>
                </EnumeratedItem>
                <EnumeratedItem CodedValue="PQL17-Hard to Turn During Night" nciodm:ExtCodeID="C138605">
                    <nciodm:CDISCSynonym>PQL17-Hard to Turn During Night</nciodm:CDISCSynonym>
                    <nciodm:CDISCDefinition>Pediatric Quality of Life Neuromuscular Module Acute Version 3 Young Child Parent Report - In the past 7 days, how much of a problem has this been for your child: It is hard for my child to turn him or herself during the night.</nciodm:CDISCDefinition>
                    <nciodm:PreferredTerm>PedsQL Neuromuscular Module Acute Version 3.0 Parent Report for Young Child - Hard to Turn During Night</nciodm:PreferredTerm>
                </EnumeratedItem>
                <EnumeratedItem CodedValue="PQL17-Hard to Use Bathroom" nciodm:ExtCodeID="C138598">
                    <nciodm:CDISCSynonym>PQL17-Hard to Use Bathroom</nciodm:CDISCSynonym>
                    <nciodm:CDISCDefinition>Pediatric Quality of Life Neuromuscular Module Acute Version 3 Young Child Parent Report - In the past 7 days, how much of a problem has this been for your child: It is hard for my child to use the bathroom.</nciodm:CDISCDefinition>
                    <nciodm:PreferredTerm>PedsQL Neuromuscular Module Acute Version 3.0 Parent Report for Young Child - Hard to Use Bathroom</nciodm:PreferredTerm>
                </EnumeratedItem>
                <EnumeratedItem CodedValue="PQL17-Hard to Use Hands" nciodm:ExtCodeID="C138600">
                    <nciodm:CDISCSynonym>PQL17-Hard to Use Hands</nciodm:CDISCSynonym>
                    <nciodm:CDISCDefinition>Pediatric Quality of Life Neuromuscular Module Acute Version 3 Young Child Parent Report - In the past 7 days, how much of a problem has this been for your child: It is hard for my child to use his or her hands.</nciodm:CDISCDefinition>
                    <nciodm:PreferredTerm>PedsQL Neuromuscular Module Acute Version 3.0 Parent Report for Young Child - Hard to Use Hands</nciodm:PreferredTerm>
                </EnumeratedItem>
                <EnumeratedItem CodedValue="PQL17-Legs Hurt" nciodm:ExtCodeID="C138593">
                    <nciodm:CDISCSynonym>PQL17-Legs Hurt</nciodm:CDISCSynonym>
                    <nciodm:CDISCDefinition>Pediatric Quality of Life Neuromuscular Module Acute Version 3 Young Child Parent Report - In the past 7 days, how much of a problem has this been for your child: My child's legs hurt.</nciodm:CDISCDefinition>
                    <nciodm:PreferredTerm>PedsQL Neuromuscular Module Acute Version 3.0 Parent Report for Young Child - Legs Hurt</nciodm:PreferredTerm>
                </EnumeratedItem>
                <EnumeratedItem CodedValue="PQL17-Long Time to Bathe/Shower" nciodm:ExtCodeID="C138602">
                    <nciodm:CDISCSynonym>PQL17-Long Time to Bathe/Shower</nciodm:CDISCSynonym>
                    <nciodm:CDISCDefinition>Pediatric Quality of Life Neuromuscular Module Acute Version 3 Young Child Parent Report - In the past 7 days, how much of a problem has this been for your child: It takes my child a long time to bathe or shower.</nciodm:CDISCDefinition>
                    <nciodm:PreferredTerm>PedsQL Neuromuscular Module Acute Version 3.0 Parent Report for Young Child - Long Time to Bathe or Shower</nciodm:PreferredTerm>
                </EnumeratedItem>
                <EnumeratedItem CodedValue="PQL17-Money Problem in Our Family" nciodm:ExtCodeID="C138612">
                    <nciodm:CDISCSynonym>PQL17-Money Problem in Our Family</nciodm:CDISCSynonym>
                    <nciodm:CDISCDefinition>Pediatric Quality of Life Neuromuscular Module Acute Version 3 Young Child Parent Report - In the past 7 days, how much of a problem has this been for your child: I think money is a problem in our family.</nciodm:CDISCDefinition>
                    <nciodm:PreferredTerm>PedsQL Neuromuscular Module Acute Version 3.0 Parent Report for Young Child - Money Problem in Our Family</nciodm:PreferredTerm>
                </EnumeratedItem>
                <EnumeratedItem CodedValue="PQL17-Take Long Time to Eat" nciodm:ExtCodeID="C138604">
                    <nciodm:CDISCSynonym>PQL17-Take Long Time to Eat</nciodm:CDISCSynonym>
                    <nciodm:CDISCDefinition>Pediatric Quality of Life Neuromuscular Module Acute Version 3 Young Child Parent Report - In the past 7 days, how much of a problem has this been for your child: My child takes a long time to eat.</nciodm:CDISCDefinition>
                    <nciodm:PreferredTerm>PedsQL Neuromuscular Module Acute Version 3.0 Parent Report for Young Child - Take Long Time to Eat</nciodm:PreferredTerm>
                </EnumeratedItem>
                <EnumeratedItem CodedValue="PQL17-Wake Up Tired" nciodm:ExtCodeID="C138596">
                    <nciodm:CDISCSynonym>PQL17-Wake Up Tired</nciodm:CDISCSynonym>
                    <nciodm:CDISCDefinition>Pediatric Quality of Life Neuromuscular Module Acute Version 3 Young Child Parent Report - In the past 7 days, how much of a problem has this been for your child: My child wakes up tired.</nciodm:CDISCDefinition>
                    <nciodm:PreferredTerm>PedsQL Neuromuscular Module Acute Version 3.0 Parent Report for Young Child - Wake Up Tired</nciodm:PreferredTerm>
                </EnumeratedItem>
                <nciodm:CDISCSubmissionValue>PQL17TN</nciodm:CDISCSubmissionValue>
                <nciodm:CDISCSynonym>Pediatric Quality of Life Neuromuscular Module Acute Version 3 Young Child Parent Report Questionnaire Test Name</nciodm:CDISCSynonym>
                <nciodm:PreferredTerm>CDISC Questionnaire PedsQL Neuromuscular Module Acute Version 3.0 Parent Report for Young Child Test Name Terminology</nciodm:PreferredTerm>
            </CodeList>
            
