<CodeList xmlns="http://www.cdisc.org/ns/odm/v1.3" xmlns:nciodm="http://ncicb.nci.nih.gov/xml/odm/EVS/CDISC" xmlns:xs="http://www.w3.org/2001/XMLSchema-instance" OID="CL.C130253.FAC017TC" Name="Functional Assessment of Cancer Therapy-Leukemia Version 4 Questionnaire Test Code" DataType="text" nciodm:ExtCodeID="C130253" nciodm:CodeListExtensible="No">
                <Description>
                    <TranslatedText xml:lang="en">Functional Assessment of Cancer Therapy-Leukemia Version 4 test code.</TranslatedText>
                </Description>
                <EnumeratedItem CodedValue="FAC01701" nciodm:ExtCodeID="C130414">
                    <nciodm:CDISCSynonym>FAC017-I Have a Lack of Energy</nciodm:CDISCSynonym>
                    <nciodm:CDISCDefinition>Functional Assessment of Cancer Therapy-Leukemia Version 4 - Physical Well-Being: I have a lack of energy.</nciodm:CDISCDefinition>
                    <nciodm:PreferredTerm>FACT-LEU Version 4 - I Have a Lack of Energy</nciodm:PreferredTerm>
                </EnumeratedItem>
                <EnumeratedItem CodedValue="FAC01702" nciodm:ExtCodeID="C130415">
                    <nciodm:CDISCSynonym>FAC017-I Have Nausea</nciodm:CDISCSynonym>
                    <nciodm:CDISCDefinition>Functional Assessment of Cancer Therapy-Leukemia Version 4 - Physical Well-Being: I have nausea.</nciodm:CDISCDefinition>
                    <nciodm:PreferredTerm>FACT-LEU Version 4 - I Have Nausea</nciodm:PreferredTerm>
                </EnumeratedItem>
                <EnumeratedItem CodedValue="FAC01703" nciodm:ExtCodeID="C130416">
                    <nciodm:CDISCSynonym>FAC017-Trouble Meeting Needs of Family</nciodm:CDISCSynonym>
                    <nciodm:CDISCDefinition>Functional Assessment of Cancer Therapy-Leukemia Version 4 - Physical Well-Being: Because of my physical condition, I have trouble meeting the needs of my family.</nciodm:CDISCDefinition>
                    <nciodm:PreferredTerm>FACT-LEU Version 4 - Trouble Meeting Needs of Family</nciodm:PreferredTerm>
                </EnumeratedItem>
                <EnumeratedItem CodedValue="FAC01704" nciodm:ExtCodeID="C130417">
                    <nciodm:CDISCSynonym>FAC017-I Have Pain</nciodm:CDISCSynonym>
                    <nciodm:CDISCDefinition>Functional Assessment of Cancer Therapy-Leukemia Version 4 - Physical Well-Being: I have pain.</nciodm:CDISCDefinition>
                    <nciodm:PreferredTerm>FACT-LEU Version 4 - I Have Pain</nciodm:PreferredTerm>
                </EnumeratedItem>
                <EnumeratedItem CodedValue="FAC01705" nciodm:ExtCodeID="C130418">
                    <nciodm:CDISCSynonym>FAC017-Bothered by Treatment Side Effect</nciodm:CDISCSynonym>
                    <nciodm:CDISCDefinition>Functional Assessment of Cancer Therapy-Leukemia Version 4 - Physical Well-Being: I am bothered by side effects of treatment.</nciodm:CDISCDefinition>
                    <nciodm:PreferredTerm>FACT-LEU Version 4 - Bothered by Treatment Side Effect</nciodm:PreferredTerm>
                </EnumeratedItem>
                <EnumeratedItem CodedValue="FAC01706" nciodm:ExtCodeID="C130419">
                    <nciodm:CDISCSynonym>FAC017-I Feel Ill</nciodm:CDISCSynonym>
                    <nciodm:CDISCDefinition>Functional Assessment of Cancer Therapy-Leukemia Version 4 - Physical Well-Being: I feel ill.</nciodm:CDISCDefinition>
                    <nciodm:PreferredTerm>FACT-LEU Version 4 - I Feel Ill</nciodm:PreferredTerm>
                </EnumeratedItem>
                <EnumeratedItem CodedValue="FAC01707" nciodm:ExtCodeID="C130420">
                    <nciodm:CDISCSynonym>FAC017-I Am Forced to Spend Time in Bed</nciodm:CDISCSynonym>
                    <nciodm:CDISCDefinition>Functional Assessment of Cancer Therapy-Leukemia Version 4 - Physical Well-Being: I am forced to spend time in bed.</nciodm:CDISCDefinition>
                    <nciodm:PreferredTerm>FACT-LEU Version 4 - I Am Forced to Spend Time in Bed</nciodm:PreferredTerm>
                </EnumeratedItem>
                <EnumeratedItem CodedValue="FAC01708" nciodm:ExtCodeID="C130421">
                    <nciodm:CDISCSynonym>FAC017-I Feel Close to My Friends</nciodm:CDISCSynonym>
                    <nciodm:CDISCDefinition>Functional Assessment of Cancer Therapy-Leukemia Version 4 - Social/Family Well-Being: I feel close to my friends.</nciodm:CDISCDefinition>
                    <nciodm:PreferredTerm>FACT-LEU Version 4 - I Feel Close to My Friends</nciodm:PreferredTerm>
                </EnumeratedItem>
                <EnumeratedItem CodedValue="FAC01709" nciodm:ExtCodeID="C130422">
                    <nciodm:CDISCSynonym>FAC017-Get Emotional Support From Family</nciodm:CDISCSynonym>
                    <nciodm:CDISCDefinition>Functional Assessment of Cancer Therapy-Leukemia Version 4 - Social/Family Well-Being: I get emotional support from my family.</nciodm:CDISCDefinition>
                    <nciodm:PreferredTerm>FACT-LEU Version 4 - Get Emotional Support From Family</nciodm:PreferredTerm>
                </EnumeratedItem>
                <EnumeratedItem CodedValue="FAC01710" nciodm:ExtCodeID="C130423">
                    <nciodm:CDISCSynonym>FAC017-I Get Support From My Friends</nciodm:CDISCSynonym>
                    <nciodm:CDISCDefinition>Functional Assessment of Cancer Therapy-Leukemia Version 4 - Social/Family Well-Being: I get support from my friends.</nciodm:CDISCDefinition>
                    <nciodm:PreferredTerm>FACT-LEU Version 4 - I Get Support From My Friends</nciodm:PreferredTerm>
                </EnumeratedItem>
                <EnumeratedItem CodedValue="FAC01711" nciodm:ExtCodeID="C130424">
                    <nciodm:CDISCSynonym>FAC017-My Family Has Accepted My Illness</nciodm:CDISCSynonym>
                    <nciodm:CDISCDefinition>Functional Assessment of Cancer Therapy-Leukemia Version 4 - Social/Family Well-Being: My family has accepted my illness.</nciodm:CDISCDefinition>
                    <nciodm:PreferredTerm>FACT-LEU Version 4 - My Family Has Accepted My Illness</nciodm:PreferredTerm>
                </EnumeratedItem>
                <EnumeratedItem CodedValue="FAC01712" nciodm:ExtCodeID="C130425">
                    <nciodm:CDISCSynonym>FAC017-Satisfied Communication Illness</nciodm:CDISCSynonym>
                    <nciodm:CDISCDefinition>Functional Assessment of Cancer Therapy-Leukemia Version 4 - Social/Family Well-Being: I am satisfied with family communication about my illness.</nciodm:CDISCDefinition>
                    <nciodm:PreferredTerm>FACT-LEU Version 4 - Satisfied Communication Illness</nciodm:PreferredTerm>
                </EnumeratedItem>
                <EnumeratedItem CodedValue="FAC01713" nciodm:ExtCodeID="C130426">
                    <nciodm:CDISCSynonym>FAC017-I Feel Close to My Partner</nciodm:CDISCSynonym>
                    <nciodm:CDISCDefinition>Functional Assessment of Cancer Therapy-Leukemia Version 4 - Social/Family Well-Being: I feel close to my partner (or the person who is my main support).</nciodm:CDISCDefinition>
                    <nciodm:PreferredTerm>FACT-LEU Version 4 - I Feel Close to My Partner</nciodm:PreferredTerm>
                </EnumeratedItem>
                <EnumeratedItem CodedValue="FAC01714" nciodm:ExtCodeID="C130427">
                    <nciodm:CDISCSynonym>FAC017-I Am Satisfied With My Sex Life</nciodm:CDISCSynonym>
                    <nciodm:CDISCDefinition>Functional Assessment of Cancer Therapy-Leukemia Version 4 - Social/Family Well-Being: I am satisfied with my sex life.</nciodm:CDISCDefinition>
                    <nciodm:PreferredTerm>FACT-LEU Version 4 - I Am Satisfied With My Sex Life</nciodm:PreferredTerm>
                </EnumeratedItem>
                <EnumeratedItem CodedValue="FAC01715" nciodm:ExtCodeID="C130428">
                    <nciodm:CDISCSynonym>FAC017-I Feel Sad</nciodm:CDISCSynonym>
                    <nciodm:CDISCDefinition>Functional Assessment of Cancer Therapy-Leukemia Version 4 - Emotional Well-Being: I feel sad.</nciodm:CDISCDefinition>
                    <nciodm:PreferredTerm>FACT-LEU Version 4 - I Feel Sad</nciodm:PreferredTerm>
                </EnumeratedItem>
                <EnumeratedItem CodedValue="FAC01716" nciodm:ExtCodeID="C130429">
                    <nciodm:CDISCSynonym>FAC017-Satisfied With How I Am Coping</nciodm:CDISCSynonym>
                    <nciodm:CDISCDefinition>Functional Assessment of Cancer Therapy-Leukemia Version 4 - Emotional Well-Being: I am satisfied with how I am coping with my illness.</nciodm:CDISCDefinition>
                    <nciodm:PreferredTerm>FACT-LEU Version 4 - Satisfied With How I Am Coping</nciodm:PreferredTerm>
                </EnumeratedItem>
                <EnumeratedItem CodedValue="FAC01717" nciodm:ExtCodeID="C130430">
                    <nciodm:CDISCSynonym>FAC017-Losing Hope Against Illness</nciodm:CDISCSynonym>
                    <nciodm:CDISCDefinition>Functional Assessment of Cancer Therapy-Leukemia Version 4 - Emotional Well-Being: I am losing hope in the fight against my illness.</nciodm:CDISCDefinition>
                    <nciodm:PreferredTerm>FACT-LEU Version 4 - Losing Hope Against Illness</nciodm:PreferredTerm>
                </EnumeratedItem>
                <EnumeratedItem CodedValue="FAC01718" nciodm:ExtCodeID="C130431">
                    <nciodm:CDISCSynonym>FAC017-I Feel Nervous</nciodm:CDISCSynonym>
                    <nciodm:CDISCDefinition>Functional Assessment of Cancer Therapy-Leukemia Version 4 - Emotional Well-Being: I feel nervous.</nciodm:CDISCDefinition>
                    <nciodm:PreferredTerm>FACT-LEU Version 4 - I Feel Nervous</nciodm:PreferredTerm>
                </EnumeratedItem>
                <EnumeratedItem CodedValue="FAC01719" nciodm:ExtCodeID="C130432">
                    <nciodm:CDISCSynonym>FAC017-I Worry About Dying</nciodm:CDISCSynonym>
                    <nciodm:CDISCDefinition>Functional Assessment of Cancer Therapy-Leukemia Version 4 - Emotional Well-Being: I worry about dying.</nciodm:CDISCDefinition>
                    <nciodm:PreferredTerm>FACT-LEU Version 4 - I Worry About Dying</nciodm:PreferredTerm>
                </EnumeratedItem>
                <EnumeratedItem CodedValue="FAC01720" nciodm:ExtCodeID="C130433">
                    <nciodm:CDISCSynonym>FAC017-Worry My Condition Will Get Worse</nciodm:CDISCSynonym>
                    <nciodm:CDISCDefinition>Functional Assessment of Cancer Therapy-Leukemia Version 4 - Emotional Well-Being: I worry that my condition will get worse.</nciodm:CDISCDefinition>
                    <nciodm:PreferredTerm>FACT-LEU Version 4 - Worry My Condition Will Get Worse</nciodm:PreferredTerm>
                </EnumeratedItem>
                <EnumeratedItem CodedValue="FAC01721" nciodm:ExtCodeID="C130434">
                    <nciodm:CDISCSynonym>FAC017-I Am Able to Work</nciodm:CDISCSynonym>
                    <nciodm:CDISCDefinition>Functional Assessment of Cancer Therapy-Leukemia Version 4 - Functional Well-Being: I am able to work (include work at home).</nciodm:CDISCDefinition>
                    <nciodm:PreferredTerm>FACT-LEU Version 4 - I Am Able to Work</nciodm:PreferredTerm>
                </EnumeratedItem>
                <EnumeratedItem CodedValue="FAC01722" nciodm:ExtCodeID="C130435">
                    <nciodm:CDISCSynonym>FAC017-My Work Is Fulfilling</nciodm:CDISCSynonym>
                    <nciodm:CDISCDefinition>Functional Assessment of Cancer Therapy-Leukemia Version 4 - Functional Well-Being: My work (include work at home) is fulfilling.</nciodm:CDISCDefinition>
                    <nciodm:PreferredTerm>FACT-LEU Version 4 - My Work Is Fulfilling</nciodm:PreferredTerm>
                </EnumeratedItem>
                <EnumeratedItem CodedValue="FAC01723" nciodm:ExtCodeID="C130436">
                    <nciodm:CDISCSynonym>FAC017-I Am Able to Enjoy Life</nciodm:CDISCSynonym>
                    <nciodm:CDISCDefinition>Functional Assessment of Cancer Therapy-Leukemia Version 4 - Functional Well-Being: I am able to enjoy life.</nciodm:CDISCDefinition>
                    <nciodm:PreferredTerm>FACT-LEU Version 4 - I Am Able to Enjoy Life</nciodm:PreferredTerm>
                </EnumeratedItem>
                <EnumeratedItem CodedValue="FAC01724" nciodm:ExtCodeID="C130437">
                    <nciodm:CDISCSynonym>FAC017-I Have Accepted My Illness</nciodm:CDISCSynonym>
                    <nciodm:CDISCDefinition>Functional Assessment of Cancer Therapy-Leukemia Version 4 - Functional Well-Being: I have accepted my illness.</nciodm:CDISCDefinition>
                    <nciodm:PreferredTerm>FACT-LEU Version 4 - I Have Accepted My Illness</nciodm:PreferredTerm>
                </EnumeratedItem>
                <EnumeratedItem CodedValue="FAC01725" nciodm:ExtCodeID="C130438">
                    <nciodm:CDISCSynonym>FAC017-I Am Sleeping Well</nciodm:CDISCSynonym>
                    <nciodm:CDISCDefinition>Functional Assessment of Cancer Therapy-Leukemia Version 4 - Functional Well-Being: I am sleeping well.</nciodm:CDISCDefinition>
                    <nciodm:PreferredTerm>FACT-LEU Version 4 - I Am Sleeping Well</nciodm:PreferredTerm>
                </EnumeratedItem>
                <EnumeratedItem CodedValue="FAC01726" nciodm:ExtCodeID="C130439">
                    <nciodm:CDISCSynonym>FAC017-Enjoy Things I Usually Do for Fun</nciodm:CDISCSynonym>
                    <nciodm:CDISCDefinition>Functional Assessment of Cancer Therapy-Leukemia Version 4 - Functional Well-Being: I am enjoying the things I usually do for fun.</nciodm:CDISCDefinition>
                    <nciodm:PreferredTerm>FACT-LEU Version 4 - Enjoy Things I Usually Do for Fun</nciodm:PreferredTerm>
                </EnumeratedItem>
                <EnumeratedItem CodedValue="FAC01727" nciodm:ExtCodeID="C130440">
                    <nciodm:CDISCSynonym>FAC017-Content With Quality of My Life</nciodm:CDISCSynonym>
                    <nciodm:CDISCDefinition>Functional Assessment of Cancer Therapy-Leukemia Version 4 - Functional Well-Being: I am content with the quality of my life right now.</nciodm:CDISCDefinition>
                    <nciodm:PreferredTerm>FACT-LEU Version 4 - Content With Quality of My Life</nciodm:PreferredTerm>
                </EnumeratedItem>
                <EnumeratedItem CodedValue="FAC01728" nciodm:ExtCodeID="C130441">
                    <nciodm:CDISCSynonym>FAC017-I Am Bothered by Fevers</nciodm:CDISCSynonym>
                    <nciodm:CDISCDefinition>Functional Assessment of Cancer Therapy-Leukemia Version 4 - Additional Concerns: I am bothered by fevers (episodes of high body temperature).</nciodm:CDISCDefinition>
                    <nciodm:PreferredTerm>FACT-LEU Version 4 - I Am Bothered by Fevers</nciodm:PreferredTerm>
                </EnumeratedItem>
                <EnumeratedItem CodedValue="FAC01729" nciodm:ExtCodeID="C130442">
                    <nciodm:CDISCSynonym>FAC017-Certain Parts of Body Have Pain</nciodm:CDISCSynonym>
                    <nciodm:CDISCDefinition>Functional Assessment of Cancer Therapy-Leukemia Version 4 - Additional Concerns: I have certain parts of my body where I experience pain.</nciodm:CDISCDefinition>
                    <nciodm:PreferredTerm>FACT-LEU Version 4 - Certain Parts of Body Have Pain</nciodm:PreferredTerm>
                </EnumeratedItem>
                <EnumeratedItem CodedValue="FAC01730" nciodm:ExtCodeID="C130443">
                    <nciodm:CDISCSynonym>FAC017-I Am Bothered by the Chills</nciodm:CDISCSynonym>
                    <nciodm:CDISCDefinition>Functional Assessment of Cancer Therapy-Leukemia Version 4 - Additional Concerns: I am bothered by the chills.</nciodm:CDISCDefinition>
                    <nciodm:PreferredTerm>FACT-LEU Version 4 - I Am Bothered by the Chills</nciodm:PreferredTerm>
                </EnumeratedItem>
                <EnumeratedItem CodedValue="FAC01731" nciodm:ExtCodeID="C130444">
                    <nciodm:CDISCSynonym>FAC017-I Have Night Sweats</nciodm:CDISCSynonym>
                    <nciodm:CDISCDefinition>Functional Assessment of Cancer Therapy-Leukemia Version 4 - Additional Concerns: I have night sweats.</nciodm:CDISCDefinition>
                    <nciodm:PreferredTerm>FACT-LEU Version 4 - I Have Night Sweats</nciodm:PreferredTerm>
                </EnumeratedItem>
                <EnumeratedItem CodedValue="FAC01732" nciodm:ExtCodeID="C130445">
                    <nciodm:CDISCSynonym>FAC017-Bothered by Lumps or Swelling</nciodm:CDISCSynonym>
                    <nciodm:CDISCDefinition>Functional Assessment of Cancer Therapy-Leukemia Version 4 - Additional Concerns: I am bothered by lumps or swelling in certain parts of my body (e.g., neck, armpits, or groin).</nciodm:CDISCDefinition>
                    <nciodm:PreferredTerm>FACT-LEU Version 4 - Bothered by Lumps or Swelling</nciodm:PreferredTerm>
                </EnumeratedItem>
                <EnumeratedItem CodedValue="FAC01733" nciodm:ExtCodeID="C130446">
                    <nciodm:CDISCSynonym>FAC017-I Bleed Easily</nciodm:CDISCSynonym>
                    <nciodm:CDISCDefinition>Functional Assessment of Cancer Therapy-Leukemia Version 4 - Additional Concerns: I bleed easily.</nciodm:CDISCDefinition>
                    <nciodm:PreferredTerm>FACT-LEU Version 4 - I Bleed Easily</nciodm:PreferredTerm>
                </EnumeratedItem>
                <EnumeratedItem CodedValue="FAC01734" nciodm:ExtCodeID="C130447">
                    <nciodm:CDISCSynonym>FAC017-I Bruise Easily</nciodm:CDISCSynonym>
                    <nciodm:CDISCDefinition>Functional Assessment of Cancer Therapy-Leukemia Version 4 - Additional Concerns: I bruise easily.</nciodm:CDISCDefinition>
                    <nciodm:PreferredTerm>FACT-LEU Version 4 - I Bruise Easily</nciodm:PreferredTerm>
                </EnumeratedItem>
                <EnumeratedItem CodedValue="FAC01735" nciodm:ExtCodeID="C130448">
                    <nciodm:CDISCSynonym>FAC017-I Feel Weak All Over</nciodm:CDISCSynonym>
                    <nciodm:CDISCDefinition>Functional Assessment of Cancer Therapy-Leukemia Version 4 - Additional Concerns: I feel weak all over.</nciodm:CDISCDefinition>
                    <nciodm:PreferredTerm>FACT-LEU Version 4 - I Feel Weak All Over</nciodm:PreferredTerm>
                </EnumeratedItem>
                <EnumeratedItem CodedValue="FAC01736" nciodm:ExtCodeID="C130449">
                    <nciodm:CDISCSynonym>FAC017-I Get Tired Easily</nciodm:CDISCSynonym>
                    <nciodm:CDISCDefinition>Functional Assessment of Cancer Therapy-Leukemia Version 4 - Additional Concerns: I get tired easily.</nciodm:CDISCDefinition>
                    <nciodm:PreferredTerm>FACT-LEU Version 4 - I Get Tired Easily</nciodm:PreferredTerm>
                </EnumeratedItem>
                <EnumeratedItem CodedValue="FAC01737" nciodm:ExtCodeID="C130450">
                    <nciodm:CDISCSynonym>FAC017-I Am Losing Weight</nciodm:CDISCSynonym>
                    <nciodm:CDISCDefinition>Functional Assessment of Cancer Therapy-Leukemia Version 4 - Additional Concerns: I am losing weight.</nciodm:CDISCDefinition>
                    <nciodm:PreferredTerm>FACT-LEU Version 4 - I Am Losing Weight</nciodm:PreferredTerm>
                </EnumeratedItem>
                <EnumeratedItem CodedValue="FAC01738" nciodm:ExtCodeID="C130451">
                    <nciodm:CDISCSynonym>FAC017-I Have a Good Appetite</nciodm:CDISCSynonym>
                    <nciodm:CDISCDefinition>Functional Assessment of Cancer Therapy-Leukemia Version 4 - Additional Concerns: I have a good appetite.</nciodm:CDISCDefinition>
                    <nciodm:PreferredTerm>FACT-LEU Version 4 - I Have a Good Appetite</nciodm:PreferredTerm>
                </EnumeratedItem>
                <EnumeratedItem CodedValue="FAC01739" nciodm:ExtCodeID="C130452">
                    <nciodm:CDISCSynonym>FAC017-Able to Do My Usual Activities</nciodm:CDISCSynonym>
                    <nciodm:CDISCDefinition>Functional Assessment of Cancer Therapy-Leukemia Version 4 - Additional Concerns: I am able to do my usual activities.</nciodm:CDISCDefinition>
                    <nciodm:PreferredTerm>FACT-LEU Version 4 - Able to Do My Usual Activities</nciodm:PreferredTerm>
                </EnumeratedItem>
                <EnumeratedItem CodedValue="FAC01740" nciodm:ExtCodeID="C130453">
                    <nciodm:CDISCSynonym>FAC017-I Worry About Getting Infections</nciodm:CDISCSynonym>
                    <nciodm:CDISCDefinition>Functional Assessment of Cancer Therapy-Leukemia Version 4 - Additional Concerns: I worry about getting infections.</nciodm:CDISCDefinition>
                    <nciodm:PreferredTerm>FACT-LEU Version 4 - I Worry About Getting Infections</nciodm:PreferredTerm>
                </EnumeratedItem>
                <EnumeratedItem CodedValue="FAC01741" nciodm:ExtCodeID="C130454">
                    <nciodm:CDISCSynonym>FAC017-Uncertain About My Future Health</nciodm:CDISCSynonym>
                    <nciodm:CDISCDefinition>Functional Assessment of Cancer Therapy-Leukemia Version 4 - Additional Concerns: I feel uncertain about my future health.</nciodm:CDISCDefinition>
                    <nciodm:PreferredTerm>FACT-LEU Version 4 - Uncertain About My Future Health</nciodm:PreferredTerm>
                </EnumeratedItem>
                <EnumeratedItem CodedValue="FAC01742" nciodm:ExtCodeID="C130455">
                    <nciodm:CDISCSynonym>FAC017-Worry I Might Get New Symptoms</nciodm:CDISCSynonym>
                    <nciodm:CDISCDefinition>Functional Assessment of Cancer Therapy-Leukemia Version 4 - Additional Concerns: I worry that I might get new symptoms of my illness.</nciodm:CDISCDefinition>
                    <nciodm:PreferredTerm>FACT-LEU Version 4 - Worry I Might Get New Symptoms</nciodm:PreferredTerm>
                </EnumeratedItem>
                <EnumeratedItem CodedValue="FAC01743" nciodm:ExtCodeID="C130456">
                    <nciodm:CDISCSynonym>FAC017-I Have Emotional Ups and Downs</nciodm:CDISCSynonym>
                    <nciodm:CDISCDefinition>Functional Assessment of Cancer Therapy-Leukemia Version 4 - Additional Concerns: I have emotional ups and downs.</nciodm:CDISCDefinition>
                    <nciodm:PreferredTerm>FACT-LEU Version 4 - I Have Emotional Ups and Downs</nciodm:PreferredTerm>
                </EnumeratedItem>
                <EnumeratedItem CodedValue="FAC01744" nciodm:ExtCodeID="C130457">
                    <nciodm:CDISCSynonym>FAC017-Feel Isolated Because of Illness</nciodm:CDISCSynonym>
                    <nciodm:CDISCDefinition>Functional Assessment of Cancer Therapy-Leukemia Version 4 - Additional Concerns: I feel isolated from others because of my illness or treatment.</nciodm:CDISCDefinition>
                    <nciodm:PreferredTerm>FACT-LEU Version 4 - Feel Isolated Because of Illness</nciodm:PreferredTerm>
                </EnumeratedItem>
                <nciodm:CDISCSubmissionValue>FAC017TC</nciodm:CDISCSubmissionValue>
                <nciodm:CDISCSynonym>Functional Assessment of Cancer Therapy-Leukemia Version 4 Questionnaire Test Code</nciodm:CDISCSynonym>
                <nciodm:PreferredTerm>CDISC Questionnaire FACT-LEU Version 4 Test Code Terminology</nciodm:PreferredTerm>
            </CodeList>
            
