<CodeList xmlns="http://www.cdisc.org/ns/odm/v1.3" xmlns:nciodm="http://ncicb.nci.nih.gov/xml/odm/EVS/CDISC" xmlns:xs="http://www.w3.org/2001/XMLSchema-instance" OID="CL.C124680.WEST HAVEN HEPATIC ENCEPHALOPATHY GRADE TESTCD" Name="West Haven Hepatic Encephalopathy Grade Clinical Classification Test Code" DataType="text" nciodm:ExtCodeID="C124680" nciodm:CodeListExtensible="No">
                <Description>
                    <TranslatedText xml:lang="en">West Haven Hepatic Encephalopathy Grade test code.</TranslatedText>
                </Description>
                <EnumeratedItem CodedValue="WHEG0101" nciodm:ExtCodeID="C117747">
                    <nciodm:CDISCSynonym>WHEG01-WH Hepatic Encephalopathy Grade</nciodm:CDISCSynonym>
                    <nciodm:CDISCDefinition>West Haven Hepatic Encephalopathy Grade - Grade.</nciodm:CDISCDefinition>
                    <nciodm:PreferredTerm>West Haven Criteria - West Haven Hepatic Encephalopathy Grade</nciodm:PreferredTerm>
                </EnumeratedItem>
                <nciodm:CDISCSubmissionValue>WEST HAVEN HEPATIC ENCEPHALOPATHY GRADE TESTCD</nciodm:CDISCSubmissionValue>
                <nciodm:CDISCSynonym>West Haven Hepatic Encephalopathy Grade Clinical Classification Test Code</nciodm:CDISCSynonym>
                <nciodm:PreferredTerm>CDISC Clinical Classification West Haven Criteria Test Code Terminology</nciodm:PreferredTerm>
            </CodeList>
            
