<CodeList xmlns="http://www.cdisc.org/ns/odm/v1.3" xmlns:nciodm="http://ncicb.nci.nih.gov/xml/odm/EVS/CDISC" xmlns:xs="http://www.w3.org/2001/XMLSchema-instance" OID="CL.C120987.BODE01TC" Name="The Body-Mass Index, Airflow Obstruction, Dyspnea, and Exercise Capacity Index Clinical Classification Test Code" DataType="text" nciodm:ExtCodeID="C120987" nciodm:CodeListExtensible="No">
                <Description>
                    <TranslatedText xml:lang="en">The Body-Mass Index, Airflow Obstruction, Dyspnea, and Exercise Capacity Index test code.</TranslatedText>
                </Description>
                <EnumeratedItem CodedValue="BODE0101" nciodm:ExtCodeID="C121063">
                    <nciodm:CDISCSynonym>BODE01-Body-mass Index</nciodm:CDISCSynonym>
                    <nciodm:CDISCDefinition>Body-Mass Index, Airflow Obstruction, Dyspnea, and Exercise Capacity Index - Body-mass index.</nciodm:CDISCDefinition>
                    <nciodm:PreferredTerm>BODE Index - Body-mass Index</nciodm:PreferredTerm>
                </EnumeratedItem>
                <EnumeratedItem CodedValue="BODE0102" nciodm:ExtCodeID="C121064">
                    <nciodm:CDISCSynonym>BODE01-FEV1 % Predicted</nciodm:CDISCSynonym>
                    <nciodm:CDISCDefinition>Body-Mass Index, Airflow Obstruction, Dyspnea, and Exercise Capacity Index - FEV1 (% of predicted).</nciodm:CDISCDefinition>
                    <nciodm:PreferredTerm>BODE Index - FEV1 Percent Predicted</nciodm:PreferredTerm>
                </EnumeratedItem>
                <EnumeratedItem CodedValue="BODE0103" nciodm:ExtCodeID="C121065">
                    <nciodm:CDISCSynonym>BODE01-MMRC Dyspnea Scale</nciodm:CDISCSynonym>
                    <nciodm:CDISCDefinition>Body-Mass Index, Airflow Obstruction, Dyspnea, and Exercise Capacity Index - MMRC dyspnea scale.</nciodm:CDISCDefinition>
                    <nciodm:PreferredTerm>BODE Index - MMRC Dyspnea Scale</nciodm:PreferredTerm>
                </EnumeratedItem>
                <EnumeratedItem CodedValue="BODE0104" nciodm:ExtCodeID="C121066">
                    <nciodm:CDISCSynonym>BODE01-Distance Walked in 6 Minutes</nciodm:CDISCSynonym>
                    <nciodm:CDISCDefinition>Body-Mass Index, Airflow Obstruction, Dyspnea, and Exercise Capacity Index - Distance walked in 6 min (in meter).</nciodm:CDISCDefinition>
                    <nciodm:PreferredTerm>BODE Index - Distance Walked in 6 Minutes</nciodm:PreferredTerm>
                </EnumeratedItem>
                <EnumeratedItem CodedValue="BODE0105" nciodm:ExtCodeID="C121067">
                    <nciodm:CDISCSynonym>BODE01-BODE Score</nciodm:CDISCSynonym>
                    <nciodm:CDISCDefinition>Body-Mass Index, Airflow Obstruction, Dyspnea, and Exercise Capacity Index - BODE score.</nciodm:CDISCDefinition>
                    <nciodm:PreferredTerm>BODE Index - Score</nciodm:PreferredTerm>
                </EnumeratedItem>
                <nciodm:CDISCSubmissionValue>BODE01TC</nciodm:CDISCSubmissionValue>
                <nciodm:CDISCSynonym>The Body-Mass Index, Airflow Obstruction, Dyspnea, and Exercise Capacity Index Clinical Classification Test Code</nciodm:CDISCSynonym>
                <nciodm:PreferredTerm>CDISC Clinical Classification BODE Index Test Code Terminology</nciodm:PreferredTerm>
            </CodeList>
            
