<CodeList xmlns="http://www.cdisc.org/ns/odm/v1.3" xmlns:nciodm="http://ncicb.nci.nih.gov/xml/odm/EVS/CDISC" xmlns:xs="http://www.w3.org/2001/XMLSchema-instance" OID="CL.C124669.FHS CVD 10-YEAR RISK TEST" Name="Framingham Heart Study Cardiovascular Disease 10-Year Risk Score Clinical Classification Test Name" DataType="text" nciodm:ExtCodeID="C124669" nciodm:CodeListExtensible="No">
                <Description>
                    <TranslatedText xml:lang="en">Framingham Heart Study Cardiovascular Disease 10-Year Risk Score test name.</TranslatedText>
                </Description>
                <EnumeratedItem CodedValue="FCVD1-Framingham CVD 10-Year Risk Score" nciodm:ExtCodeID="C124722">
                    <nciodm:CDISCSynonym>FCVD1-Framingham CVD 10-Year Risk Score</nciodm:CDISCSynonym>
                    <nciodm:CDISCDefinition>Framingham Heart Study Cardiovascular Disease 10-Year Risk Score - Cardiovascular disease 10-year risk score.</nciodm:CDISCDefinition>
                    <nciodm:PreferredTerm>FHS CVD 10-Year Risk Score - Risk Score</nciodm:PreferredTerm>
                </EnumeratedItem>
                <nciodm:CDISCSubmissionValue>FHS CVD 10-YEAR RISK TEST</nciodm:CDISCSubmissionValue>
                <nciodm:CDISCSynonym>Framingham Heart Study Cardiovascular Disease 10-Year Risk Score Clinical Classification Test Name</nciodm:CDISCSynonym>
                <nciodm:PreferredTerm>CDISC Clinical Classification FHS CVD 10-Year Risk Score Test Name Terminology</nciodm:PreferredTerm>
            </CodeList>
            
