<CodeList xmlns="http://www.cdisc.org/ns/odm/v1.3" xmlns:nciodm="http://ncicb.nci.nih.gov/xml/odm/EVS/CDISC" xmlns:xs="http://www.w3.org/2001/XMLSchema-instance" OID="CL.C138246.PQL09TN" Name="Pediatric Quality of Life Neuromuscular Module Version 3 Toddler Parent Report Questionnaire Test Name" DataType="text" nciodm:ExtCodeID="C138246" nciodm:CodeListExtensible="No">
                <Description>
                    <TranslatedText xml:lang="en">Pediatric Quality of Life Neuromuscular Module Version 3 Toddler Parent Report test name.</TranslatedText>
                </Description>
                <EnumeratedItem CodedValue="PQL09-Back Feels Stiff" nciodm:ExtCodeID="C138712">
                    <nciodm:CDISCSynonym>PQL09-Back Feels Stiff</nciodm:CDISCSynonym>
                    <nciodm:CDISCDefinition>Pediatric Quality of Life Neuromuscular Module Version 3 Toddler Parent Report - In the past one month, how much of a problem has this been for your child: My child's back feels stiff.</nciodm:CDISCDefinition>
                    <nciodm:PreferredTerm>PedsQL Neuromuscular Module Version 3.0 Parent of Toddler - Back Feels Stiff</nciodm:PreferredTerm>
                </EnumeratedItem>
                <EnumeratedItem CodedValue="PQL09-Do Not Have Equipment Need" nciodm:ExtCodeID="C138731">
                    <nciodm:CDISCSynonym>PQL09-Do Not Have Equipment Need</nciodm:CDISCSynonym>
                    <nciodm:CDISCDefinition>Pediatric Quality of Life Neuromuscular Module Version 3 Toddler Parent Report - In the past one month, how much of a problem has this been for your child: My child does not have the equipment he or she needs.</nciodm:CDISCDefinition>
                    <nciodm:PreferredTerm>PedsQL Neuromuscular Module Version 3.0 Parent of Toddler - Do Not Have Equipment Need</nciodm:PreferredTerm>
                </EnumeratedItem>
                <EnumeratedItem CodedValue="PQL09-Family Has Lot of Problems" nciodm:ExtCodeID="C138730">
                    <nciodm:CDISCSynonym>PQL09-Family Has Lot of Problems</nciodm:CDISCSynonym>
                    <nciodm:CDISCDefinition>Pediatric Quality of Life Neuromuscular Module Version 3 Toddler Parent Report - In the past one month, how much of a problem has this been for your child: I think our family has a lot of problems.</nciodm:CDISCDefinition>
                    <nciodm:PreferredTerm>PedsQL Neuromuscular Module Version 3.0 Parent of Toddler - Family Has Lot of Problems</nciodm:PreferredTerm>
                </EnumeratedItem>
                <EnumeratedItem CodedValue="PQL09-Feel Tired" nciodm:ExtCodeID="C138711">
                    <nciodm:CDISCSynonym>PQL09-Feel Tired</nciodm:CDISCSynonym>
                    <nciodm:CDISCDefinition>Pediatric Quality of Life Neuromuscular Module Version 3 Toddler Parent Report - In the past one month, how much of a problem has this been for your child: My child feels tired.</nciodm:CDISCDefinition>
                    <nciodm:PreferredTerm>PedsQL Neuromuscular Module Version 3.0 Parent of Toddler - Feel Tired</nciodm:PreferredTerm>
                </EnumeratedItem>
                <EnumeratedItem CodedValue="PQL09-Get Hurt Accidentally" nciodm:ExtCodeID="C138720">
                    <nciodm:CDISCSynonym>PQL09-Get Hurt Accidentally</nciodm:CDISCSynonym>
                    <nciodm:CDISCDefinition>Pediatric Quality of Life Neuromuscular Module Version 3 Toddler Parent Report - In the past one month, how much of a problem has this been for your child: My child gets hurt accidentally.</nciodm:CDISCDefinition>
                    <nciodm:PreferredTerm>PedsQL Neuromuscular Module Version 3.0 Parent of Toddler - Get Hurt Accidentally</nciodm:PreferredTerm>
                </EnumeratedItem>
                <EnumeratedItem CodedValue="PQL09-Get Sick Easily" nciodm:ExtCodeID="C138708">
                    <nciodm:CDISCSynonym>PQL09-Get Sick Easily</nciodm:CDISCSynonym>
                    <nciodm:CDISCDefinition>Pediatric Quality of Life Neuromuscular Module Version 3 Toddler Parent Report - In the past one month, how much of a problem has this been for your child: My child gets sick easily.</nciodm:CDISCDefinition>
                    <nciodm:PreferredTerm>PedsQL Neuromuscular Module Version 3.0 Parent of Toddler - Get Sick Easily</nciodm:PreferredTerm>
                </EnumeratedItem>
                <EnumeratedItem CodedValue="PQL09-Get Sores and/or Rashes" nciodm:ExtCodeID="C138709">
                    <nciodm:CDISCSynonym>PQL09-Get Sores and/or Rashes</nciodm:CDISCSynonym>
                    <nciodm:CDISCDefinition>Pediatric Quality of Life Neuromuscular Module Version 3 Toddler Parent Report - In the past one month, how much of a problem has this been for your child: My child gets sores and/or rashes.</nciodm:CDISCDefinition>
                    <nciodm:PreferredTerm>PedsQL Neuromuscular Module Version 3.0 Parent of Toddler - Get Sores and/or Rashes</nciodm:PreferredTerm>
                </EnumeratedItem>
                <EnumeratedItem CodedValue="PQL09-Hands Are Weak" nciodm:ExtCodeID="C138714">
                    <nciodm:CDISCSynonym>PQL09-Hands Are Weak</nciodm:CDISCSynonym>
                    <nciodm:CDISCDefinition>Pediatric Quality of Life Neuromuscular Module Version 3 Toddler Parent Report - In the past one month, how much of a problem has this been for your child: My child's hands are weak.</nciodm:CDISCDefinition>
                    <nciodm:PreferredTerm>PedsQL Neuromuscular Module Version 3.0 Parent of Toddler - Hands Are Weak</nciodm:PreferredTerm>
                </EnumeratedItem>
                <EnumeratedItem CodedValue="PQL09-Hard Ask Doctors/Nurses Questions" nciodm:ExtCodeID="C138725">
                    <nciodm:CDISCSynonym>PQL09-Hard Ask Doctors/Nurses Questions</nciodm:CDISCSynonym>
                    <nciodm:CDISCDefinition>Pediatric Quality of Life Neuromuscular Module Version 3 Toddler Parent Report - In the past one month, how much of a problem has this been for your child: It is hard for my child to ask the doctors and nurses questions.</nciodm:CDISCDefinition>
                    <nciodm:PreferredTerm>PedsQL Neuromuscular Module Version 3.0 Parent of Toddler - Hard Ask Doctors and Nurses Questions</nciodm:PreferredTerm>
                </EnumeratedItem>
                <EnumeratedItem CodedValue="PQL09-Hard Explain Illness to People" nciodm:ExtCodeID="C138726">
                    <nciodm:CDISCSynonym>PQL09-Hard Explain Illness to People</nciodm:CDISCSynonym>
                    <nciodm:CDISCDefinition>Pediatric Quality of Life Neuromuscular Module Version 3 Toddler Parent Report - In the past one month, how much of a problem has this been for your child: It is hard for my child to explain his or her illness to other people.</nciodm:CDISCDefinition>
                    <nciodm:PreferredTerm>PedsQL Neuromuscular Module Version 3.0 Parent of Toddler - Hard Explain Illness to People</nciodm:PreferredTerm>
                </EnumeratedItem>
                <EnumeratedItem CodedValue="PQL09-Hard for Family to Plan Activities" nciodm:ExtCodeID="C138727">
                    <nciodm:CDISCSynonym>PQL09-Hard for Family to Plan Activities</nciodm:CDISCSynonym>
                    <nciodm:CDISCDefinition>Pediatric Quality of Life Neuromuscular Module Version 3 Toddler Parent Report - In the past one month, how much of a problem has this been for your child: It is hard for our family to plan activities like vacations.</nciodm:CDISCDefinition>
                    <nciodm:PreferredTerm>PedsQL Neuromuscular Module Version 3.0 Parent of Toddler - Hard for Family to Plan Activities</nciodm:PreferredTerm>
                </EnumeratedItem>
                <EnumeratedItem CodedValue="PQL09-Hard for Family to Rest" nciodm:ExtCodeID="C138728">
                    <nciodm:CDISCSynonym>PQL09-Hard for Family to Rest</nciodm:CDISCSynonym>
                    <nciodm:CDISCDefinition>Pediatric Quality of Life Neuromuscular Module Version 3 Toddler Parent Report - In the past one month, how much of a problem has this been for your child: It is hard for our family to get enough rest.</nciodm:CDISCDefinition>
                    <nciodm:PreferredTerm>PedsQL Neuromuscular Module Version 3.0 Parent of Toddler - Hard for Family to Rest</nciodm:PreferredTerm>
                </EnumeratedItem>
                <EnumeratedItem CodedValue="PQL09-Hard Tell Doctors/Nurses How Feel" nciodm:ExtCodeID="C138724">
                    <nciodm:CDISCSynonym>PQL09-Hard Tell Doctors/Nurses How Feel</nciodm:CDISCSynonym>
                    <nciodm:CDISCDefinition>Pediatric Quality of Life Neuromuscular Module Version 3 Toddler Parent Report - In the past one month, how much of a problem has this been for your child: It is hard for my child to tell the doctors and nurses how he or she feels.</nciodm:CDISCDefinition>
                    <nciodm:PreferredTerm>PedsQL Neuromuscular Module Version 3.0 Parent of Toddler - Hard Tell Doctors and Nurses How Feel</nciodm:PreferredTerm>
                </EnumeratedItem>
                <EnumeratedItem CodedValue="PQL09-Hard to Breathe" nciodm:ExtCodeID="C138707">
                    <nciodm:CDISCSynonym>PQL09-Hard to Breathe</nciodm:CDISCSynonym>
                    <nciodm:CDISCDefinition>Pediatric Quality of Life Neuromuscular Module Version 3 Toddler Parent Report - In the past one month, how much of a problem has this been for your child: It is hard for my child to breathe.</nciodm:CDISCDefinition>
                    <nciodm:PreferredTerm>PedsQL Neuromuscular Module Version 3.0 Parent of Toddler - Hard to Breathe</nciodm:PreferredTerm>
                </EnumeratedItem>
                <EnumeratedItem CodedValue="PQL09-Hard to Gain/Lose Weight" nciodm:ExtCodeID="C138716">
                    <nciodm:CDISCSynonym>PQL09-Hard to Gain/Lose Weight</nciodm:CDISCSynonym>
                    <nciodm:CDISCDefinition>Pediatric Quality of Life Neuromuscular Module Version 3 Toddler Parent Report - In the past one month, how much of a problem has this been for your child: It is hard for my child to gain or lose weight when he or she wants to.</nciodm:CDISCDefinition>
                    <nciodm:PreferredTerm>PedsQL Neuromuscular Module Version 3.0 Parent of Toddler - Hard to Gain or Lose Weight</nciodm:PreferredTerm>
                </EnumeratedItem>
                <EnumeratedItem CodedValue="PQL09-Hard to Go Places With Equipment" nciodm:ExtCodeID="C138723">
                    <nciodm:CDISCSynonym>PQL09-Hard to Go Places With Equipment</nciodm:CDISCSynonym>
                    <nciodm:CDISCDefinition>Pediatric Quality of Life Neuromuscular Module Version 3 Toddler Parent Report - In the past one month, how much of a problem has this been for your child: It is hard for my child to go places with his or her equipment.</nciodm:CDISCDefinition>
                    <nciodm:PreferredTerm>PedsQL Neuromuscular Module Version 3.0 Parent of Toddler - Hard to Go Places With Equipment</nciodm:PreferredTerm>
                </EnumeratedItem>
                <EnumeratedItem CodedValue="PQL09-Hard to Swallow Food" nciodm:ExtCodeID="C138718">
                    <nciodm:CDISCSynonym>PQL09-Hard to Swallow Food</nciodm:CDISCSynonym>
                    <nciodm:CDISCDefinition>Pediatric Quality of Life Neuromuscular Module Version 3 Toddler Parent Report - In the past one month, how much of a problem has this been for your child: It is hard for my child to swallow food.</nciodm:CDISCDefinition>
                    <nciodm:PreferredTerm>PedsQL Neuromuscular Module Version 3.0 Parent of Toddler - Hard to Swallow Food</nciodm:PreferredTerm>
                </EnumeratedItem>
                <EnumeratedItem CodedValue="PQL09-Hard to Turn During Night" nciodm:ExtCodeID="C138722">
                    <nciodm:CDISCSynonym>PQL09-Hard to Turn During Night</nciodm:CDISCSynonym>
                    <nciodm:CDISCDefinition>Pediatric Quality of Life Neuromuscular Module Version 3 Toddler Parent Report - In the past one month, how much of a problem has this been for your child: It is hard for my child to turn him or herself during the night.</nciodm:CDISCDefinition>
                    <nciodm:PreferredTerm>PedsQL Neuromuscular Module Version 3.0 Parent of Toddler - Hard to Turn During Night</nciodm:PreferredTerm>
                </EnumeratedItem>
                <EnumeratedItem CodedValue="PQL09-Hard to Use Bathroom" nciodm:ExtCodeID="C138715">
                    <nciodm:CDISCSynonym>PQL09-Hard to Use Bathroom</nciodm:CDISCSynonym>
                    <nciodm:CDISCDefinition>Pediatric Quality of Life Neuromuscular Module Version 3 Toddler Parent Report - In the past one month, how much of a problem has this been for your child: It is hard for my child to use the bathroom.</nciodm:CDISCDefinition>
                    <nciodm:PreferredTerm>PedsQL Neuromuscular Module Version 3.0 Parent of Toddler - Hard to Use Bathroom</nciodm:PreferredTerm>
                </EnumeratedItem>
                <EnumeratedItem CodedValue="PQL09-Hard to Use Hands" nciodm:ExtCodeID="C138717">
                    <nciodm:CDISCSynonym>PQL09-Hard to Use Hands</nciodm:CDISCSynonym>
                    <nciodm:CDISCDefinition>Pediatric Quality of Life Neuromuscular Module Version 3 Toddler Parent Report - In the past one month, how much of a problem has this been for your child: It is hard for my child to use his or her hands.</nciodm:CDISCDefinition>
                    <nciodm:PreferredTerm>PedsQL Neuromuscular Module Version 3.0 Parent of Toddler - Hard to Use Hands</nciodm:PreferredTerm>
                </EnumeratedItem>
                <EnumeratedItem CodedValue="PQL09-Legs Hurt" nciodm:ExtCodeID="C138710">
                    <nciodm:CDISCSynonym>PQL09-Legs Hurt</nciodm:CDISCSynonym>
                    <nciodm:CDISCDefinition>Pediatric Quality of Life Neuromuscular Module Version 3 Toddler Parent Report - In the past one month, how much of a problem has this been for your child: My child's legs hurt.</nciodm:CDISCDefinition>
                    <nciodm:PreferredTerm>PedsQL Neuromuscular Module Version 3.0 Parent of Toddler - Legs Hurt</nciodm:PreferredTerm>
                </EnumeratedItem>
                <EnumeratedItem CodedValue="PQL09-Long Time to Bathe/Shower" nciodm:ExtCodeID="C138719">
                    <nciodm:CDISCSynonym>PQL09-Long Time to Bathe/Shower</nciodm:CDISCSynonym>
                    <nciodm:CDISCDefinition>Pediatric Quality of Life Neuromuscular Module Version 3 Toddler Parent Report - In the past one month, how much of a problem has this been for your child: It takes my child a long time to bathe or shower.</nciodm:CDISCDefinition>
                    <nciodm:PreferredTerm>PedsQL Neuromuscular Module Version 3.0 Parent of Toddler - Long Time to Bathe or Shower</nciodm:PreferredTerm>
                </EnumeratedItem>
                <EnumeratedItem CodedValue="PQL09-Money Problem in Our Family" nciodm:ExtCodeID="C138729">
                    <nciodm:CDISCSynonym>PQL09-Money Problem in Our Family</nciodm:CDISCSynonym>
                    <nciodm:CDISCDefinition>Pediatric Quality of Life Neuromuscular Module Version 3 Toddler Parent Report - In the past one month, how much of a problem has this been for your child: I think money is a problem in our family.</nciodm:CDISCDefinition>
                    <nciodm:PreferredTerm>PedsQL Neuromuscular Module Version 3.0 Parent of Toddler - Money Problem in Our Family</nciodm:PreferredTerm>
                </EnumeratedItem>
                <EnumeratedItem CodedValue="PQL09-Take Long Time to Eat" nciodm:ExtCodeID="C138721">
                    <nciodm:CDISCSynonym>PQL09-Take Long Time to Eat</nciodm:CDISCSynonym>
                    <nciodm:CDISCDefinition>Pediatric Quality of Life Neuromuscular Module Version 3 Toddler Parent Report - In the past one month, how much of a problem has this been for your child: My child takes a long time to eat.</nciodm:CDISCDefinition>
                    <nciodm:PreferredTerm>PedsQL Neuromuscular Module Version 3.0 Parent of Toddler - Take Long Time to Eat</nciodm:PreferredTerm>
                </EnumeratedItem>
                <EnumeratedItem CodedValue="PQL09-Wake Up Tired" nciodm:ExtCodeID="C138713">
                    <nciodm:CDISCSynonym>PQL09-Wake Up Tired</nciodm:CDISCSynonym>
                    <nciodm:CDISCDefinition>Pediatric Quality of Life Neuromuscular Module Version 3 Toddler Parent Report - In the past one month, how much of a problem has this been for your child: My child wakes up tired.</nciodm:CDISCDefinition>
                    <nciodm:PreferredTerm>PedsQL Neuromuscular Module Version 3.0 Parent of Toddler - Wake Up Tired</nciodm:PreferredTerm>
                </EnumeratedItem>
                <nciodm:CDISCSubmissionValue>PQL09TN</nciodm:CDISCSubmissionValue>
                <nciodm:CDISCSynonym>Pediatric Quality of Life Neuromuscular Module Version 3 Toddler Parent Report Questionnaire Test Name</nciodm:CDISCSynonym>
                <nciodm:PreferredTerm>CDISC Questionnaire PedsQL Neuromuscular Module Version 3.0 Parent of Toddler Test Name Terminology</nciodm:PreferredTerm>
            </CodeList>
            
