<CodeList xmlns="http://www.cdisc.org/ns/odm/v1.3" xmlns:nciodm="http://ncicb.nci.nih.gov/xml/odm/EVS/CDISC" xmlns:xs="http://www.w3.org/2001/XMLSchema-instance" OID="CL.C120978.CRQ01TN" Name="Chronic Respiratory Questionnaire Self-Administered Standardized Format First Administration Version Questionnaire Test Name" DataType="text" nciodm:ExtCodeID="C120978" nciodm:CodeListExtensible="No">
                <Description>
                    <TranslatedText xml:lang="en">Chronic Respiratory Questionnaire Self-Administered Standardized Format First Administration Version test name.</TranslatedText>
                </Description>
                <EnumeratedItem CodedValue="CRQ01-Confident to Deal With Illness" nciodm:ExtCodeID="C121019">
                    <nciodm:CDISCSynonym>CRQ01-Confident to Deal With Illness</nciodm:CDISCSynonym>
                    <nciodm:CDISCDefinition>Chronic Respiratory Questionnaire Self-Administered Standardized Format (CRQ-SAS) First Administration Version - In the last 2 weeks, how much of the time did you feel very confident and sure that you could deal with your illness?</nciodm:CDISCDefinition>
                    <nciodm:PreferredTerm>CRQ-SAS First Administration Version - Feel Confident to Deal With Illness</nciodm:PreferredTerm>
                </EnumeratedItem>
                <EnumeratedItem CodedValue="CRQ01-Control of Breathing Problems" nciodm:ExtCodeID="C121022">
                    <nciodm:CDISCSynonym>CRQ01-Control of Breathing Problems</nciodm:CDISCSynonym>
                    <nciodm:CDISCDefinition>Chronic Respiratory Questionnaire Self-Administered Standardized Format (CRQ-SAS) First Administration Version - How often during the last 2 weeks did you feel you had complete control of your breathing problems?</nciodm:CDISCDefinition>
                    <nciodm:PreferredTerm>CRQ-SAS First Administration Version - Had Control of Breathing Problems</nciodm:PreferredTerm>
                </EnumeratedItem>
                <EnumeratedItem CodedValue="CRQ01-Embarrassed by Coughing" nciodm:ExtCodeID="C121018">
                    <nciodm:CDISCSynonym>CRQ01-Embarrassed by Coughing</nciodm:CDISCSynonym>
                    <nciodm:CDISCDefinition>Chronic Respiratory Questionnaire Self-Administered Standardized Format (CRQ-SAS) First Administration Version - How often during the last 2 weeks have you felt embarrassed by your coughing or heavy breathing?</nciodm:CDISCDefinition>
                    <nciodm:PreferredTerm>CRQ-SAS First Administration Version - Embarrassed by Coughing</nciodm:PreferredTerm>
                </EnumeratedItem>
                <EnumeratedItem CodedValue="CRQ01-Energy" nciodm:ExtCodeID="C121020">
                    <nciodm:CDISCSynonym>CRQ01-Energy</nciodm:CDISCSynonym>
                    <nciodm:CDISCDefinition>Chronic Respiratory Questionnaire Self-Administered Standardized Format (CRQ-SAS) First Administration Version - How much energy have you had in the last 2 weeks?</nciodm:CDISCDefinition>
                    <nciodm:PreferredTerm>CRQ-SAS First Administration Version - Energy</nciodm:PreferredTerm>
                </EnumeratedItem>
                <EnumeratedItem CodedValue="CRQ01-Fatigue" nciodm:ExtCodeID="C121017">
                    <nciodm:CDISCSynonym>CRQ01-Fatigue</nciodm:CDISCSynonym>
                    <nciodm:CDISCDefinition>Chronic Respiratory Questionnaire Self-Administered Standardized Format (CRQ-SAS) First Administration Version - How about fatigue? How tired have you felt over the last 2 weeks?</nciodm:CDISCDefinition>
                    <nciodm:PreferredTerm>CRQ-SAS First Administration Version - Fatigue</nciodm:PreferredTerm>
                </EnumeratedItem>
                <EnumeratedItem CodedValue="CRQ01-Feel Relaxed and Free of Tension" nciodm:ExtCodeID="C121023">
                    <nciodm:CDISCSynonym>CRQ01-Feel Relaxed and Free of Tension</nciodm:CDISCSynonym>
                    <nciodm:CDISCDefinition>Chronic Respiratory Questionnaire Self-Administered Standardized Format (CRQ-SAS) First Administration Version - How much of the time during the last 2 weeks did you feel relaxed and free of tension?</nciodm:CDISCDefinition>
                    <nciodm:PreferredTerm>CRQ-SAS First Administration Version - Feel Relaxed and Free of Tension</nciodm:PreferredTerm>
                </EnumeratedItem>
                <EnumeratedItem CodedValue="CRQ01-Feel Upset Diff Getting Breath" nciodm:ExtCodeID="C121028">
                    <nciodm:CDISCSynonym>CRQ01-Feel Upset Diff Getting Breath</nciodm:CDISCSynonym>
                    <nciodm:CDISCDefinition>Chronic Respiratory Questionnaire Self-Administered Standardized Format (CRQ-SAS) First Administration Version - How often during the last 2 weeks did you feel upset or scared when you had difficulty getting your breath?</nciodm:CDISCDefinition>
                    <nciodm:PreferredTerm>CRQ-SAS First Administration Version - Feel Upset When Had Difficulty Getting Breath</nciodm:PreferredTerm>
                </EnumeratedItem>
                <EnumeratedItem CodedValue="CRQ01-Feel Upset, Worried or Depressed" nciodm:ExtCodeID="C121021">
                    <nciodm:CDISCSynonym>CRQ01-Feel Upset, Worried or Depressed</nciodm:CDISCSynonym>
                    <nciodm:CDISCDefinition>Chronic Respiratory Questionnaire Self-Administered Standardized Format (CRQ-SAS) First Administration Version - In general, how much of the time did you feel upset, worried, or depressed during the last 2 weeks?</nciodm:CDISCDefinition>
                    <nciodm:PreferredTerm>CRQ-SAS First Administration Version - Feel Upset, Worried or Depressed</nciodm:PreferredTerm>
                </EnumeratedItem>
                <EnumeratedItem CodedValue="CRQ01-Feeling Emotional" nciodm:ExtCodeID="C121010">
                    <nciodm:CDISCSynonym>CRQ01-Feeling Emotional</nciodm:CDISCSynonym>
                    <nciodm:CDISCDefinition>Chronic Respiratory Questionnaire Self-Administered Standardized Format (CRQ-SAS) First Administration Version - Feeling emotional such as angry or upset.</nciodm:CDISCDefinition>
                    <nciodm:PreferredTerm>CRQ-SAS First Administration Version - Feeling Emotional</nciodm:PreferredTerm>
                </EnumeratedItem>
                <EnumeratedItem CodedValue="CRQ01-Feeling of Fear or Panic" nciodm:ExtCodeID="C121016">
                    <nciodm:CDISCSynonym>CRQ01-Feeling of Fear or Panic</nciodm:CDISCSynonym>
                    <nciodm:CDISCDefinition>Chronic Respiratory Questionnaire Self-Administered Standardized Format (CRQ-SAS) First Administration Version - How often during the last 2 weeks did you have a feeling of fear or panic when you had difficulty getting your breath?</nciodm:CDISCDefinition>
                    <nciodm:PreferredTerm>CRQ-SAS First Administration Version - Feeling of Fear or Panic</nciodm:PreferredTerm>
                </EnumeratedItem>
                <EnumeratedItem CodedValue="CRQ01-Felt Discouraged or Down" nciodm:ExtCodeID="C121025">
                    <nciodm:CDISCSynonym>CRQ01-Felt Discouraged or Down</nciodm:CDISCSynonym>
                    <nciodm:CDISCDefinition>Chronic Respiratory Questionnaire Self-Administered Standardized Format (CRQ-SAS) First Administration Version - In general, how often during the last 2 weeks have you felt discouraged or down in the dumps?</nciodm:CDISCDefinition>
                    <nciodm:PreferredTerm>CRQ-SAS First Administration Version - Felt Discouraged or Down</nciodm:PreferredTerm>
                </EnumeratedItem>
                <EnumeratedItem CodedValue="CRQ01-Felt Frustrated or Impatient" nciodm:ExtCodeID="C121015">
                    <nciodm:CDISCSynonym>CRQ01-Felt Frustrated or Impatient</nciodm:CDISCSynonym>
                    <nciodm:CDISCDefinition>Chronic Respiratory Questionnaire Self-Administered Standardized Format (CRQ-SAS) First Administration Version - In general, how much of the time during the last 2 weeks have you felt frustrated or impatient?</nciodm:CDISCDefinition>
                    <nciodm:PreferredTerm>CRQ-SAS First Administration Version - Felt Frustrated or Impatient</nciodm:PreferredTerm>
                </EnumeratedItem>
                <EnumeratedItem CodedValue="CRQ01-Felt Low in Energy" nciodm:ExtCodeID="C121024">
                    <nciodm:CDISCSynonym>CRQ01-Felt Low in Energy</nciodm:CDISCSynonym>
                    <nciodm:CDISCDefinition>Chronic Respiratory Questionnaire Self-Administered Standardized Format (CRQ-SAS) First Administration Version - How often during the last 2 weeks have you felt low in energy?</nciodm:CDISCDefinition>
                    <nciodm:PreferredTerm>CRQ-SAS First Administration Version - Felt Low in Energy</nciodm:PreferredTerm>
                </EnumeratedItem>
                <EnumeratedItem CodedValue="CRQ01-Felt Restless, Tense or Uptight" nciodm:ExtCodeID="C121029">
                    <nciodm:CDISCSynonym>CRQ01-Felt Restless, Tense or Uptight</nciodm:CDISCSynonym>
                    <nciodm:CDISCDefinition>Chronic Respiratory Questionnaire Self-Administered Standardized Format (CRQ-SAS) First Administration Version - In general, how often during the last 2 weeks have you felt restless, tense, or uptight?</nciodm:CDISCDefinition>
                    <nciodm:PreferredTerm>CRQ-SAS First Administration Version - Felt Restless, Tense or Uptight</nciodm:PreferredTerm>
                </EnumeratedItem>
                <EnumeratedItem CodedValue="CRQ01-Felt Worn Out or Sluggish" nciodm:ExtCodeID="C121026">
                    <nciodm:CDISCSynonym>CRQ01-Felt Worn Out or Sluggish</nciodm:CDISCSynonym>
                    <nciodm:CDISCDefinition>Chronic Respiratory Questionnaire Self-Administered Standardized Format (CRQ-SAS) First Administration Version - How often during the last 2 weeks have you felt worn out or sluggish?</nciodm:CDISCDefinition>
                    <nciodm:PreferredTerm>CRQ-SAS First Administration Version - Felt Worn Out or Sluggish</nciodm:PreferredTerm>
                </EnumeratedItem>
                <EnumeratedItem CodedValue="CRQ01-Happy, Satisfied or Pleased" nciodm:ExtCodeID="C121027">
                    <nciodm:CDISCSynonym>CRQ01-Happy, Satisfied or Pleased</nciodm:CDISCSynonym>
                    <nciodm:CDISCDefinition>Chronic Respiratory Questionnaire Self-Administered Standardized Format (CRQ-SAS) First Administration Version - How happy, satisfied, or pleased have you been with your personal life during the last 2 weeks?</nciodm:CDISCDefinition>
                    <nciodm:PreferredTerm>CRQ-SAS First Administration Version - Happy, Satisfied or Pleased With Life</nciodm:PreferredTerm>
                </EnumeratedItem>
                <EnumeratedItem CodedValue="CRQ01-Participate in Social Activities" nciodm:ExtCodeID="C121014">
                    <nciodm:CDISCSynonym>CRQ01-Participate in Social Activities</nciodm:CDISCSynonym>
                    <nciodm:CDISCDefinition>Chronic Respiratory Questionnaire Self-Administered Standardized Format (CRQ-SAS) First Administration Version - Participating in social activities.</nciodm:CDISCDefinition>
                    <nciodm:PreferredTerm>CRQ-SAS First Administration Version - Participate in Social Activities</nciodm:PreferredTerm>
                </EnumeratedItem>
                <EnumeratedItem CodedValue="CRQ01-Performing Chores" nciodm:ExtCodeID="C121013">
                    <nciodm:CDISCSynonym>CRQ01-Performing Chores</nciodm:CDISCSynonym>
                    <nciodm:CDISCDefinition>Chronic Respiratory Questionnaire Self-Administered Standardized Format (CRQ-SAS) First Administration Version - Performing chores.</nciodm:CDISCDefinition>
                    <nciodm:PreferredTerm>CRQ-SAS First Administration Version - Performing Chores</nciodm:PreferredTerm>
                </EnumeratedItem>
                <EnumeratedItem CodedValue="CRQ01-Take Care of Basic Needs" nciodm:ExtCodeID="C121011">
                    <nciodm:CDISCSynonym>CRQ01-Take Care of Basic Needs</nciodm:CDISCSynonym>
                    <nciodm:CDISCDefinition>Chronic Respiratory Questionnaire Self-Administered Standardized Format (CRQ-SAS) First Administration Version - Taking care of your basic needs.</nciodm:CDISCDefinition>
                    <nciodm:PreferredTerm>CRQ-SAS First Administration Version - Take Care of Basic Needs</nciodm:PreferredTerm>
                </EnumeratedItem>
                <EnumeratedItem CodedValue="CRQ01-Walking" nciodm:ExtCodeID="C121012">
                    <nciodm:CDISCSynonym>CRQ01-Walking</nciodm:CDISCSynonym>
                    <nciodm:CDISCDefinition>Chronic Respiratory Questionnaire Self-Administered Standardized Format (CRQ-SAS) First Administration Version - Walking.</nciodm:CDISCDefinition>
                    <nciodm:PreferredTerm>CRQ-SAS First Administration Version - Walking</nciodm:PreferredTerm>
                </EnumeratedItem>
                <nciodm:CDISCSubmissionValue>CRQ01TN</nciodm:CDISCSubmissionValue>
                <nciodm:CDISCSynonym>Chronic Respiratory Questionnaire Self-Administered Standardized Format First Administration Version Questionnaire Test Name</nciodm:CDISCSynonym>
                <nciodm:PreferredTerm>CDISC Questionnaire CRQ-SAS First Administration Version Test Name Terminology</nciodm:PreferredTerm>
            </CodeList>
            
