<CodeList xmlns="http://www.cdisc.org/ns/odm/v1.3" xmlns:nciodm="http://ncicb.nci.nih.gov/xml/odm/EVS/CDISC" xmlns:xs="http://www.w3.org/2001/XMLSchema-instance" OID="CL.C103466.GAD01TN" Name="Generalized Anxiety Disorder - 7 Questionnaire Test Name" DataType="text" nciodm:ExtCodeID="C103466" nciodm:CodeListExtensible="No">
                <Description>
                    <TranslatedText xml:lang="en">Generalized Anxiety Disorder - 7 test name.</TranslatedText>
                </Description>
                <EnumeratedItem CodedValue="GAD01-Becoming Easily Annoyed/Irritable" nciodm:ExtCodeID="C103570">
                    <nciodm:CDISCSynonym>GAD01-Becoming Easily Annoyed/Irritable</nciodm:CDISCSynonym>
                    <nciodm:CDISCDefinition>Generalized Anxiety Disorder - 7 - Becoming easily annoyed or irritable.</nciodm:CDISCDefinition>
                    <nciodm:PreferredTerm>GAD-7 - Becoming Easily Annoyed or Irritable</nciodm:PreferredTerm>
                </EnumeratedItem>
                <EnumeratedItem CodedValue="GAD01-Being Restless Hard to Sit Still" nciodm:ExtCodeID="C103569">
                    <nciodm:CDISCSynonym>GAD01-Being Restless Hard to Sit Still</nciodm:CDISCSynonym>
                    <nciodm:CDISCDefinition>Generalized Anxiety Disorder - 7 - Being so restless that it is hard to sit still.</nciodm:CDISCDefinition>
                    <nciodm:PreferredTerm>GAD-7 - Being so Restless That it is Hard to Sit Still</nciodm:PreferredTerm>
                </EnumeratedItem>
                <EnumeratedItem CodedValue="GAD01-Difficult to Work/Take Care Things" nciodm:ExtCodeID="C103572">
                    <nciodm:CDISCSynonym>GAD01-Difficult to Work/Take Care Things</nciodm:CDISCSynonym>
                    <nciodm:CDISCDefinition>Generalized Anxiety Disorder - 7 - If you checked off any problems, how difficult have these problems made it for you to do your work, take care of things at home, or get along with other people?</nciodm:CDISCDefinition>
                    <nciodm:PreferredTerm>GAD-7 - Problems Made it Difficult to Work, Take Care of Things, or Get Along with Other People</nciodm:PreferredTerm>
                </EnumeratedItem>
                <EnumeratedItem CodedValue="GAD01-Feel Afraid/Something Awful Happen" nciodm:ExtCodeID="C103571">
                    <nciodm:CDISCSynonym>GAD01-Feel Afraid/Something Awful Happen</nciodm:CDISCSynonym>
                    <nciodm:CDISCDefinition>Generalized Anxiety Disorder - 7 - Feeling afraid as if something awful might happen.</nciodm:CDISCDefinition>
                    <nciodm:PreferredTerm>GAD-7 - Feel Afraid as if Something Awful Might Happen</nciodm:PreferredTerm>
                </EnumeratedItem>
                <EnumeratedItem CodedValue="GAD01-Feeling Nervous Anxious or On Edge" nciodm:ExtCodeID="C103565">
                    <nciodm:CDISCSynonym>GAD01-Feeling Nervous Anxious or On Edge</nciodm:CDISCSynonym>
                    <nciodm:CDISCDefinition>Generalized Anxiety Disorder - 7 - Feeling nervous, anxious or on edge.</nciodm:CDISCDefinition>
                    <nciodm:PreferredTerm>GAD-7 - Feeling Nervous Anxious or On Edge</nciodm:PreferredTerm>
                </EnumeratedItem>
                <EnumeratedItem CodedValue="GAD01-Not Able to Stop/Control Worrying" nciodm:ExtCodeID="C103566">
                    <nciodm:CDISCSynonym>GAD01-Not Able to Stop/Control Worrying</nciodm:CDISCSynonym>
                    <nciodm:CDISCDefinition>Generalized Anxiety Disorder - 7 - Not being able to stop or control worrying.</nciodm:CDISCDefinition>
                    <nciodm:PreferredTerm>GAD-7 - Not Being Able to Stop or Control Worrying</nciodm:PreferredTerm>
                </EnumeratedItem>
                <EnumeratedItem CodedValue="GAD01-Total Score" nciodm:ExtCodeID="C113886">
                    <nciodm:CDISCSynonym>GAD01-Total Score</nciodm:CDISCSynonym>
                    <nciodm:CDISCDefinition>Generalized Anxiety Disorder - 7 - Total score.</nciodm:CDISCDefinition>
                    <nciodm:PreferredTerm>GAD-7 - Total Score</nciodm:PreferredTerm>
                </EnumeratedItem>
                <EnumeratedItem CodedValue="GAD01-Trouble Relaxing" nciodm:ExtCodeID="C103568">
                    <nciodm:CDISCSynonym>GAD01-Trouble Relaxing</nciodm:CDISCSynonym>
                    <nciodm:CDISCDefinition>Generalized Anxiety Disorder - 7 - Trouble relaxing.</nciodm:CDISCDefinition>
                    <nciodm:PreferredTerm>GAD-7 - Trouble Relaxing</nciodm:PreferredTerm>
                </EnumeratedItem>
                <EnumeratedItem CodedValue="GAD01-Worrying Too Much About Things" nciodm:ExtCodeID="C103567">
                    <nciodm:CDISCSynonym>GAD01-Worrying Too Much About Things</nciodm:CDISCSynonym>
                    <nciodm:CDISCDefinition>Generalized Anxiety Disorder - 7 - Worrying too much about different things.</nciodm:CDISCDefinition>
                    <nciodm:PreferredTerm>GAD-7 - Worrying Too Much About Different Things</nciodm:PreferredTerm>
                </EnumeratedItem>
                <nciodm:CDISCSubmissionValue>GAD01TN</nciodm:CDISCSubmissionValue>
                <nciodm:CDISCSynonym>Generalized Anxiety Disorder - 7 Questionnaire Test Name</nciodm:CDISCSynonym>
                <nciodm:PreferredTerm>CDISC Questionnaire GAD-7 Test Name Terminology</nciodm:PreferredTerm>
            </CodeList>
            
