<CodeList xmlns="http://www.cdisc.org/ns/odm/v1.3" xmlns:nciodm="http://ncicb.nci.nih.gov/xml/odm/EVS/CDISC" xmlns:xs="http://www.w3.org/2001/XMLSchema-instance" OID="CL.C141665.IPAQ04TC" Name="International Physical Activity Questionnaire (August 2002) Short Last 7 Days Self-Administered Format Questionnaire Test Code" DataType="text" nciodm:ExtCodeID="C141665" nciodm:CodeListExtensible="No">
                <Description>
                    <TranslatedText xml:lang="en">International Physical Activity Questionnaire (August 2002) Short Last 7 Days Self-Administered Format test code.</TranslatedText>
                </Description>
                <EnumeratedItem CodedValue="IPA0401A" nciodm:ExtCodeID="C141708">
                    <nciodm:CDISCSynonym>IPA04-Days Vigorous Physical Activities</nciodm:CDISCSynonym>
                    <nciodm:CDISCDefinition>International Physical Activity Questionnaire (August 2002) - Short Last 7 Days Self-Administered Format - During the last 7 days, on how many days did you do vigorous physical activities like heavy lifting, digging, aerobics, or fast bicycling?: days per week.</nciodm:CDISCDefinition>
                    <nciodm:PreferredTerm>IPAQ Short Last 7 Days Self-administered Format Version - Days Vigorous Physical Activities</nciodm:PreferredTerm>
                </EnumeratedItem>
                <EnumeratedItem CodedValue="IPA0401B" nciodm:ExtCodeID="C141709">
                    <nciodm:CDISCSynonym>IPA04-No Vigorous Physical Activities</nciodm:CDISCSynonym>
                    <nciodm:CDISCDefinition>International Physical Activity Questionnaire (August 2002) - Short Last 7 Days Self-Administered Format - During the last 7 days, on how many days did you do vigorous physical activities like heavy lifting, digging, aerobics, or fast bicycling?: No vigorous physical activities.</nciodm:CDISCDefinition>
                    <nciodm:PreferredTerm>IPAQ Short Last 7 Days Self-administered Format Version - No Vigorous Physical Activities</nciodm:PreferredTerm>
                </EnumeratedItem>
                <EnumeratedItem CodedValue="IPA0402A" nciodm:ExtCodeID="C141710">
                    <nciodm:CDISCSynonym>IPA04-Vigorous Physical Hours per Day</nciodm:CDISCSynonym>
                    <nciodm:CDISCDefinition>International Physical Activity Questionnaire (August 2002) - Short Last 7 Days Self-Administered Format - How much time did you usually spend doing vigorous physical activities on one of those days?: hours per day.</nciodm:CDISCDefinition>
                    <nciodm:PreferredTerm>IPAQ Short Last 7 Days Self-administered Format Version - Vigorous Physical Hours per Day</nciodm:PreferredTerm>
                </EnumeratedItem>
                <EnumeratedItem CodedValue="IPA0402B" nciodm:ExtCodeID="C141711">
                    <nciodm:CDISCSynonym>IPA04-Vigorous Physical Minutes per Day</nciodm:CDISCSynonym>
                    <nciodm:CDISCDefinition>International Physical Activity Questionnaire (August 2002) - Short Last 7 Days Self-Administered Format - How much time did you usually spend doing vigorous physical activities on one of those days?: minutes per day.</nciodm:CDISCDefinition>
                    <nciodm:PreferredTerm>IPAQ Short Last 7 Days Self-administered Format Version - Vigorous Physical Minutes per Day</nciodm:PreferredTerm>
                </EnumeratedItem>
                <EnumeratedItem CodedValue="IPA0402C" nciodm:ExtCodeID="C141712">
                    <nciodm:CDISCSynonym>IPA04-Time Vigorous Don't Know/Not Sure</nciodm:CDISCSynonym>
                    <nciodm:CDISCDefinition>International Physical Activity Questionnaire (August 2002) - Short Last 7 Days Self-Administered Format - How much time did you usually spend doing vigorous physical activities on one of those days?: Don't know/Not sure.</nciodm:CDISCDefinition>
                    <nciodm:PreferredTerm>IPAQ Short Last 7 Days Self-administered Format Version - Time Vigorous Don't Know/Not Sure</nciodm:PreferredTerm>
                </EnumeratedItem>
                <EnumeratedItem CodedValue="IPA0403A" nciodm:ExtCodeID="C141713">
                    <nciodm:CDISCSynonym>IPA04-Days Moderate Physical Activities</nciodm:CDISCSynonym>
                    <nciodm:CDISCDefinition>International Physical Activity Questionnaire (August 2002) - Short Last 7 Days Self-Administered Format - During the last 7 days, on how many days did you do moderate physical activities like carrying light loads, bicycling at a regular pace, or doubles tennis?: days per week.</nciodm:CDISCDefinition>
                    <nciodm:PreferredTerm>IPAQ Short Last 7 Days Self-administered Format Version - Days Moderate Physical Activities</nciodm:PreferredTerm>
                </EnumeratedItem>
                <EnumeratedItem CodedValue="IPA0403B" nciodm:ExtCodeID="C141714">
                    <nciodm:CDISCSynonym>IPA04-No Moderate Physical Activities</nciodm:CDISCSynonym>
                    <nciodm:CDISCDefinition>International Physical Activity Questionnaire (August 2002) - Short Last 7 Days Self-Administered Format - During the last 7 days, on how many days did you do moderate physical activities like carrying light loads, bicycling at a regular pace, or doubles tennis?: No moderate physical activities.</nciodm:CDISCDefinition>
                    <nciodm:PreferredTerm>IPAQ Short Last 7 Days Self-administered Format Version - No Moderate Physical Activities</nciodm:PreferredTerm>
                </EnumeratedItem>
                <EnumeratedItem CodedValue="IPA0404A" nciodm:ExtCodeID="C141715">
                    <nciodm:CDISCSynonym>IPA04-Moderate Physical Hours per Day</nciodm:CDISCSynonym>
                    <nciodm:CDISCDefinition>International Physical Activity Questionnaire (August 2002) - Short Last 7 Days Self-Administered Format - How much time did you usually spend doing moderate physical activities on one of those days?: hours per day.</nciodm:CDISCDefinition>
                    <nciodm:PreferredTerm>IPAQ Short Last 7 Days Self-administered Format Version - Moderate Physical Hours per Day</nciodm:PreferredTerm>
                </EnumeratedItem>
                <EnumeratedItem CodedValue="IPA0404B" nciodm:ExtCodeID="C141716">
                    <nciodm:CDISCSynonym>IPA04-Moderate Physical Minutes per Day</nciodm:CDISCSynonym>
                    <nciodm:CDISCDefinition>International Physical Activity Questionnaire (August 2002) - Short Last 7 Days Self-Administered Format - How much time did you usually spend doing moderate physical activities on one of those days?: minutes per day.</nciodm:CDISCDefinition>
                    <nciodm:PreferredTerm>IPAQ Short Last 7 Days Self-administered Format Version - Moderate Physical Minutes per Day</nciodm:PreferredTerm>
                </EnumeratedItem>
                <EnumeratedItem CodedValue="IPA0404C" nciodm:ExtCodeID="C141717">
                    <nciodm:CDISCSynonym>IPA04-Time Moderate Don't Know/Not Sure</nciodm:CDISCSynonym>
                    <nciodm:CDISCDefinition>International Physical Activity Questionnaire (August 2002) - Short Last 7 Days Self-Administered Format - How much time did you usually spend doing moderate physical activities on one of those days?: Don't know/Not sure.</nciodm:CDISCDefinition>
                    <nciodm:PreferredTerm>IPAQ Short Last 7 Days Self-administered Format Version - Time Moderate Don't Know/Not Sure</nciodm:PreferredTerm>
                </EnumeratedItem>
                <EnumeratedItem CodedValue="IPA0405A" nciodm:ExtCodeID="C141718">
                    <nciodm:CDISCSynonym>IPA04-Days Walk at Least 10 Minutes</nciodm:CDISCSynonym>
                    <nciodm:CDISCDefinition>International Physical Activity Questionnaire (August 2002) - Short Last 7 Days Self-Administered Format - During the last 7 days, on how many days did you walk for at least 10 minutes at a time?: days per week.</nciodm:CDISCDefinition>
                    <nciodm:PreferredTerm>IPAQ Short Last 7 Days Self-administered Format Version - Days Walk at Least 10 Minutes</nciodm:PreferredTerm>
                </EnumeratedItem>
                <EnumeratedItem CodedValue="IPA0405B" nciodm:ExtCodeID="C141719">
                    <nciodm:CDISCSynonym>IPA04-No Walking</nciodm:CDISCSynonym>
                    <nciodm:CDISCDefinition>International Physical Activity Questionnaire (August 2002) - Short Last 7 Days Self-Administered Format - During the last 7 days, on how many days did you walk for at least 10 minutes at a time?: No walking.</nciodm:CDISCDefinition>
                    <nciodm:PreferredTerm>IPAQ Short Last 7 Days Self-administered Format Version - No Walking</nciodm:PreferredTerm>
                </EnumeratedItem>
                <EnumeratedItem CodedValue="IPA0406A" nciodm:ExtCodeID="C141720">
                    <nciodm:CDISCSynonym>IPA04-Walking Hours per Day</nciodm:CDISCSynonym>
                    <nciodm:CDISCDefinition>International Physical Activity Questionnaire (August 2002) - Short Last 7 Days Self-Administered Format - How much time did you usually spend walking on one of those days?: hours per day.</nciodm:CDISCDefinition>
                    <nciodm:PreferredTerm>IPAQ Short Last 7 Days Self-administered Format Version - Walking Hours per Day</nciodm:PreferredTerm>
                </EnumeratedItem>
                <EnumeratedItem CodedValue="IPA0406B" nciodm:ExtCodeID="C141721">
                    <nciodm:CDISCSynonym>IPA04-Walking Minutes per Day</nciodm:CDISCSynonym>
                    <nciodm:CDISCDefinition>International Physical Activity Questionnaire (August 2002) - Short Last 7 Days Self-Administered Format - How much time did you usually spend walking on one of those days?: minutes per day.</nciodm:CDISCDefinition>
                    <nciodm:PreferredTerm>IPAQ Short Last 7 Days Self-administered Format Version - Walking Minutes per Day</nciodm:PreferredTerm>
                </EnumeratedItem>
                <EnumeratedItem CodedValue="IPA0406C" nciodm:ExtCodeID="C141722">
                    <nciodm:CDISCSynonym>IPA04-Time Walking Don't Know/Not Sure</nciodm:CDISCSynonym>
                    <nciodm:CDISCDefinition>International Physical Activity Questionnaire (August 2002) - Short Last 7 Days Self-Administered Format - How much time did you usually spend walking on one of those days?: Don't know/Not sure.</nciodm:CDISCDefinition>
                    <nciodm:PreferredTerm>IPAQ Short Last 7 Days Self-administered Format Version - Time Walking Don't Know/Not Sure</nciodm:PreferredTerm>
                </EnumeratedItem>
                <EnumeratedItem CodedValue="IPA0407A" nciodm:ExtCodeID="C141723">
                    <nciodm:CDISCSynonym>IPA04-Sitting Weekday Hours per Day</nciodm:CDISCSynonym>
                    <nciodm:CDISCDefinition>International Physical Activity Questionnaire (August 2002) - Short Last 7 Days Self-Administered Format - During the last 7 days, how much time did you spend sitting on a weekday?: hours per day.</nciodm:CDISCDefinition>
                    <nciodm:PreferredTerm>IPAQ Short Last 7 Days Self-administered Format Version - Sitting Weekday Hours per Day</nciodm:PreferredTerm>
                </EnumeratedItem>
                <EnumeratedItem CodedValue="IPA0407B" nciodm:ExtCodeID="C141724">
                    <nciodm:CDISCSynonym>IPA04-Sitting Weekday Minutes per Day</nciodm:CDISCSynonym>
                    <nciodm:CDISCDefinition>International Physical Activity Questionnaire (August 2002) - Short Last 7 Days Self-Administered Format - During the last 7 days, how much time did you spend sitting on a weekday?: minutes per day.</nciodm:CDISCDefinition>
                    <nciodm:PreferredTerm>IPAQ Short Last 7 Days Self-administered Format Version - Sitting Weekday Minutes per Day</nciodm:PreferredTerm>
                </EnumeratedItem>
                <EnumeratedItem CodedValue="IPA0407C" nciodm:ExtCodeID="C141725">
                    <nciodm:CDISCSynonym>IPA04-Time Sitting Don't Know/Not Sure</nciodm:CDISCSynonym>
                    <nciodm:CDISCDefinition>International Physical Activity Questionnaire (August 2002) - Short Last 7 Days Self-Administered Format - During the last 7 days, how much time did you spend sitting on a weekday?: Don't know/Not sure.</nciodm:CDISCDefinition>
                    <nciodm:PreferredTerm>IPAQ Short Last 7 Days Self-administered Format Version - Time Sitting Don't Know/Not Sure</nciodm:PreferredTerm>
                </EnumeratedItem>
                <nciodm:CDISCSubmissionValue>IPAQ04TC</nciodm:CDISCSubmissionValue>
                <nciodm:CDISCSynonym>International Physical Activity Questionnaire (August 2002) Short Last 7 Days Self-Administered Format Questionnaire Test Code</nciodm:CDISCSynonym>
                <nciodm:PreferredTerm>CDISC Questionnaire IPAQ Short Last 7 Days Self-administered Format Version Test Code Terminology</nciodm:PreferredTerm>
            </CodeList>
            
