<CodeList xmlns="http://www.cdisc.org/ns/odm/v1.3" xmlns:nciodm="http://ncicb.nci.nih.gov/xml/odm/EVS/CDISC" xmlns:xs="http://www.w3.org/2001/XMLSchema-instance" OID="CL.C138223.FAC039TC" Name="Functional Assessment of Cancer Therapy-Kidney Symptom Index-15 Questionnaire Test Code" DataType="text" nciodm:ExtCodeID="C138223" nciodm:CodeListExtensible="No">
                <Description>
                    <TranslatedText xml:lang="en">Functional Assessment of Cancer Therapy-Kidney Symptom Index-15 test code.</TranslatedText>
                </Description>
                <EnumeratedItem CodedValue="FAC03901" nciodm:ExtCodeID="C138444">
                    <nciodm:CDISCSynonym>FAC039-I Have a Lack of Energy</nciodm:CDISCSynonym>
                    <nciodm:CDISCDefinition>Functional Assessment of Cancer Therapy-Kidney Symptom Index-15 - I have a lack of energy.</nciodm:CDISCDefinition>
                    <nciodm:PreferredTerm>FKSI-15 - I Have a Lack of Energy</nciodm:PreferredTerm>
                </EnumeratedItem>
                <EnumeratedItem CodedValue="FAC03902" nciodm:ExtCodeID="C138445">
                    <nciodm:CDISCSynonym>FAC039-Bothered by Treatment Side Effect</nciodm:CDISCSynonym>
                    <nciodm:CDISCDefinition>Functional Assessment of Cancer Therapy-Kidney Symptom Index-15 - I am bothered by side effects of treatment.</nciodm:CDISCDefinition>
                    <nciodm:PreferredTerm>FKSI-15 - Bothered by Treatment Side Effect</nciodm:PreferredTerm>
                </EnumeratedItem>
                <EnumeratedItem CodedValue="FAC03903" nciodm:ExtCodeID="C138446">
                    <nciodm:CDISCSynonym>FAC039-I Have Pain</nciodm:CDISCSynonym>
                    <nciodm:CDISCDefinition>Functional Assessment of Cancer Therapy-Kidney Symptom Index-15 - I have pain.</nciodm:CDISCDefinition>
                    <nciodm:PreferredTerm>FKSI-15 - I Have Pain</nciodm:PreferredTerm>
                </EnumeratedItem>
                <EnumeratedItem CodedValue="FAC03904" nciodm:ExtCodeID="C138447">
                    <nciodm:CDISCSynonym>FAC039-I Am Losing Weight</nciodm:CDISCSynonym>
                    <nciodm:CDISCDefinition>Functional Assessment of Cancer Therapy-Kidney Symptom Index-15 - I am losing weight.</nciodm:CDISCDefinition>
                    <nciodm:PreferredTerm>FKSI-15 - I Am Losing Weight</nciodm:PreferredTerm>
                </EnumeratedItem>
                <EnumeratedItem CodedValue="FAC03905" nciodm:ExtCodeID="C138448">
                    <nciodm:CDISCSynonym>FAC039-I Have Bone Pain</nciodm:CDISCSynonym>
                    <nciodm:CDISCDefinition>Functional Assessment of Cancer Therapy-Kidney Symptom Index-15 - I have bone pain.</nciodm:CDISCDefinition>
                    <nciodm:PreferredTerm>FKSI-15 - I Have Bone Pain</nciodm:PreferredTerm>
                </EnumeratedItem>
                <EnumeratedItem CodedValue="FAC03906" nciodm:ExtCodeID="C138449">
                    <nciodm:CDISCSynonym>FAC039-I Feel Fatigued</nciodm:CDISCSynonym>
                    <nciodm:CDISCDefinition>Functional Assessment of Cancer Therapy-Kidney Symptom Index-15 - I feel fatigued.</nciodm:CDISCDefinition>
                    <nciodm:PreferredTerm>FKSI-15 - I Feel Fatigued</nciodm:PreferredTerm>
                </EnumeratedItem>
                <EnumeratedItem CodedValue="FAC03907" nciodm:ExtCodeID="C138450">
                    <nciodm:CDISCSynonym>FAC039-I Am Able to Enjoy Life</nciodm:CDISCSynonym>
                    <nciodm:CDISCDefinition>Functional Assessment of Cancer Therapy-Kidney Symptom Index-15 - I am able to enjoy life.</nciodm:CDISCDefinition>
                    <nciodm:PreferredTerm>FKSI-15 - I Am Able to Enjoy Life</nciodm:PreferredTerm>
                </EnumeratedItem>
                <EnumeratedItem CodedValue="FAC03908" nciodm:ExtCodeID="C138451">
                    <nciodm:CDISCSynonym>FAC039-I Have Been Short of Breath</nciodm:CDISCSynonym>
                    <nciodm:CDISCDefinition>Functional Assessment of Cancer Therapy-Kidney Symptom Index-15 - I have been short of breath.</nciodm:CDISCDefinition>
                    <nciodm:PreferredTerm>FKSI-15 - I Have Been Short of Breath</nciodm:PreferredTerm>
                </EnumeratedItem>
                <EnumeratedItem CodedValue="FAC03909" nciodm:ExtCodeID="C138452">
                    <nciodm:CDISCSynonym>FAC039-Worry My Condition Will Get Worse</nciodm:CDISCSynonym>
                    <nciodm:CDISCDefinition>Functional Assessment of Cancer Therapy-Kidney Symptom Index-15 - I worry that my condition will get worse.</nciodm:CDISCDefinition>
                    <nciodm:PreferredTerm>FKSI-15 - Worry My Condition Will Get Worse</nciodm:PreferredTerm>
                </EnumeratedItem>
                <EnumeratedItem CodedValue="FAC03910" nciodm:ExtCodeID="C138453">
                    <nciodm:CDISCSynonym>FAC039-I Have a Good Appetite</nciodm:CDISCSynonym>
                    <nciodm:CDISCDefinition>Functional Assessment of Cancer Therapy-Kidney Symptom Index-15 - I have a good appetite.</nciodm:CDISCDefinition>
                    <nciodm:PreferredTerm>FKSI-15 - I Have a Good Appetite</nciodm:PreferredTerm>
                </EnumeratedItem>
                <EnumeratedItem CodedValue="FAC03911" nciodm:ExtCodeID="C138454">
                    <nciodm:CDISCSynonym>FAC039-I Have Been Coughing</nciodm:CDISCSynonym>
                    <nciodm:CDISCDefinition>Functional Assessment of Cancer Therapy-Kidney Symptom Index-15 - I have been coughing.</nciodm:CDISCDefinition>
                    <nciodm:PreferredTerm>FKSI-15 - I Have Been Coughing</nciodm:PreferredTerm>
                </EnumeratedItem>
                <EnumeratedItem CodedValue="FAC03912" nciodm:ExtCodeID="C138455">
                    <nciodm:CDISCSynonym>FAC039-I Am Bothered by Fevers</nciodm:CDISCSynonym>
                    <nciodm:CDISCDefinition>Functional Assessment of Cancer Therapy-Kidney Symptom Index-15 - I am bothered by fevers (episodes of high body temperature).</nciodm:CDISCDefinition>
                    <nciodm:PreferredTerm>FKSI-15 - I Am Bothered by Fevers</nciodm:PreferredTerm>
                </EnumeratedItem>
                <EnumeratedItem CodedValue="FAC03913" nciodm:ExtCodeID="C138456">
                    <nciodm:CDISCSynonym>FAC039-I Am Able to Work</nciodm:CDISCSynonym>
                    <nciodm:CDISCDefinition>Functional Assessment of Cancer Therapy-Kidney Symptom Index-15 - I am able to work (include work at home).</nciodm:CDISCDefinition>
                    <nciodm:PreferredTerm>FKSI-15 - I Am Able to Work</nciodm:PreferredTerm>
                </EnumeratedItem>
                <EnumeratedItem CodedValue="FAC03914" nciodm:ExtCodeID="C138457">
                    <nciodm:CDISCSynonym>FAC039-I Have Had Blood in My Urine</nciodm:CDISCSynonym>
                    <nciodm:CDISCDefinition>Functional Assessment of Cancer Therapy-Kidney Symptom Index-15 - I have had blood in my urine.</nciodm:CDISCDefinition>
                    <nciodm:PreferredTerm>FKSI-15 - I Have Had Blood in My Urine</nciodm:PreferredTerm>
                </EnumeratedItem>
                <EnumeratedItem CodedValue="FAC03915" nciodm:ExtCodeID="C138458">
                    <nciodm:CDISCSynonym>FAC039-I Am Sleeping Well</nciodm:CDISCSynonym>
                    <nciodm:CDISCDefinition>Functional Assessment of Cancer Therapy-Kidney Symptom Index-15 - I am sleeping well.</nciodm:CDISCDefinition>
                    <nciodm:PreferredTerm>FKSI-15 - I Am Sleeping Well</nciodm:PreferredTerm>
                </EnumeratedItem>
                <nciodm:CDISCSubmissionValue>FAC039TC</nciodm:CDISCSubmissionValue>
                <nciodm:CDISCSynonym>Functional Assessment of Cancer Therapy-Kidney Symptom Index-15 Questionnaire Test Code</nciodm:CDISCSynonym>
                <nciodm:PreferredTerm>CDISC Questionnaire FKSI-15 Test Code Terminology</nciodm:PreferredTerm>
            </CodeList>
            
