<CodeList xmlns="http://www.cdisc.org/ns/odm/v1.3" xmlns:nciodm="http://ncicb.nci.nih.gov/xml/odm/EVS/CDISC" xmlns:xs="http://www.w3.org/2001/XMLSchema-instance" OID="CL.C103476.OAB-Q SHORT FORM TEST" Name="The Overactive Bladder Questionnaire Short Form Test Name" DataType="text" nciodm:ExtCodeID="C103476" nciodm:CodeListExtensible="No">
                <Description>
                    <TranslatedText xml:lang="en">The Overactive Bladder Questionnaire Short Form test name.</TranslatedText>
                </Description>
                <EnumeratedItem CodedValue="OABQ02-Accidental Loss of Urine" nciodm:ExtCodeID="C103688">
                    <nciodm:CDISCSynonym>OABQ02-Accidental Loss of Urine</nciodm:CDISCSynonym>
                    <nciodm:CDISCDefinition>The Overactive Bladder Questionnaire Short Form - Accidental loss of small amounts of urine?</nciodm:CDISCDefinition>
                    <nciodm:PreferredTerm>OAB-q Short Form - Accidental Loss of Urine</nciodm:PreferredTerm>
                </EnumeratedItem>
                <EnumeratedItem CodedValue="OABQ02-Affected Relationships" nciodm:ExtCodeID="C103701">
                    <nciodm:CDISCSynonym>OABQ02-Affected Relationships</nciodm:CDISCSynonym>
                    <nciodm:CDISCDefinition>The Overactive Bladder Questionnaire Short Form - Affected your relationships with family and friends?</nciodm:CDISCDefinition>
                    <nciodm:PreferredTerm>OAB-q Short Form - Affected Your Relationships with Family and Friends</nciodm:PreferredTerm>
                </EnumeratedItem>
                <EnumeratedItem CodedValue="OABQ02-Avoid Activ Away From Restroom" nciodm:ExtCodeID="C103696">
                    <nciodm:CDISCSynonym>OABQ02-Avoid Activ Away From Restroom</nciodm:CDISCSynonym>
                    <nciodm:CDISCDefinition>The Overactive Bladder Questionnaire Short Form - Made you avoid activities away from restrooms (i.e., walks, running, hiking)?</nciodm:CDISCDefinition>
                    <nciodm:PreferredTerm>OAB-q Short Form - Avoid Activities Away From Restrooms</nciodm:PreferredTerm>
                </EnumeratedItem>
                <EnumeratedItem CodedValue="OABQ02-Awakened You During Sleep" nciodm:ExtCodeID="C103697">
                    <nciodm:CDISCSynonym>OABQ02-Awakened You During Sleep</nciodm:CDISCSynonym>
                    <nciodm:CDISCDefinition>The Overactive Bladder Questionnaire Short Form - Awakened you during sleep?</nciodm:CDISCDefinition>
                    <nciodm:PreferredTerm>OAB-q Short Form - Awakened You During Sleep</nciodm:PreferredTerm>
                </EnumeratedItem>
                <EnumeratedItem CodedValue="OABQ02-Caused Problems Partner/Spouse" nciodm:ExtCodeID="C103699">
                    <nciodm:CDISCSynonym>OABQ02-Caused Problems Partner/Spouse</nciodm:CDISCSynonym>
                    <nciodm:CDISCDefinition>The Overactive Bladder Questionnaire Short Form - Caused you to have problems with your partner or spouse?</nciodm:CDISCDefinition>
                    <nciodm:PreferredTerm>OAB-q Short Form - Caused Problems with Your Partner or Spouse</nciodm:PreferredTerm>
                </EnumeratedItem>
                <EnumeratedItem CodedValue="OABQ02-Caused You Embarrassment" nciodm:ExtCodeID="C103703">
                    <nciodm:CDISCSynonym>OABQ02-Caused You Embarrassment</nciodm:CDISCSynonym>
                    <nciodm:CDISCDefinition>The Overactive Bladder Questionnaire Short Form - Caused you embarrassment?</nciodm:CDISCDefinition>
                    <nciodm:PreferredTerm>OAB-q Short Form - Caused You Embarrassment</nciodm:PreferredTerm>
                </EnumeratedItem>
                <EnumeratedItem CodedValue="OABQ02-Decrease Physical Activities" nciodm:ExtCodeID="C103698">
                    <nciodm:CDISCSynonym>OABQ02-Decrease Physical Activities</nciodm:CDISCSynonym>
                    <nciodm:CDISCDefinition>The Overactive Bladder Questionnaire Short Form - Caused you to decrease your physical activities (exercising, sports, etc.)?</nciodm:CDISCDefinition>
                    <nciodm:PreferredTerm>OAB-q Short Form - Decrease Your Physical Activities</nciodm:PreferredTerm>
                </EnumeratedItem>
                <EnumeratedItem CodedValue="OABQ02-Feel Something is Wrong with You" nciodm:ExtCodeID="C103693">
                    <nciodm:CDISCSynonym>OABQ02-Feel Something is Wrong with You</nciodm:CDISCSynonym>
                    <nciodm:CDISCDefinition>The Overactive Bladder Questionnaire Short Form - Made you feel like there is something wrong with you?</nciodm:CDISCDefinition>
                    <nciodm:PreferredTerm>OAB-q Short Form - Feel Like There is Something Wrong with You</nciodm:PreferredTerm>
                </EnumeratedItem>
                <EnumeratedItem CodedValue="OABQ02-Frustrated about Time in Restroom" nciodm:ExtCodeID="C103695">
                    <nciodm:CDISCSynonym>OABQ02-Frustrated about Time in Restroom</nciodm:CDISCSynonym>
                    <nciodm:CDISCDefinition>The Overactive Bladder Questionnaire Short Form - Made you frustrated or annoyed about the amount of time you spend in the restroom?</nciodm:CDISCDefinition>
                    <nciodm:PreferredTerm>OAB-q Short Form - Frustrated or Annoyed About the Amount of Time You Spend in the Restroom</nciodm:PreferredTerm>
                </EnumeratedItem>
                <EnumeratedItem CodedValue="OABQ02-Interfered with Getting Sleep" nciodm:ExtCodeID="C103702">
                    <nciodm:CDISCSynonym>OABQ02-Interfered with Getting Sleep</nciodm:CDISCSynonym>
                    <nciodm:CDISCDefinition>The Overactive Bladder Questionnaire Short Form - Interfered with getting the amount of sleep you needed?</nciodm:CDISCDefinition>
                    <nciodm:PreferredTerm>OAB-q Short Form - Interfered with Getting Sleep</nciodm:PreferredTerm>
                </EnumeratedItem>
                <EnumeratedItem CodedValue="OABQ02-Interfered with Good Night's Rest" nciodm:ExtCodeID="C103694">
                    <nciodm:CDISCSynonym>OABQ02-Interfered with Good Night's Rest</nciodm:CDISCSynonym>
                    <nciodm:CDISCDefinition>The Overactive Bladder Questionnaire Short Form - Interfered with your ability to get a good night's rest?</nciodm:CDISCDefinition>
                    <nciodm:PreferredTerm>OAB-q Short Form - Interfered with a Good Night's Rest</nciodm:PreferredTerm>
                </EnumeratedItem>
                <EnumeratedItem CodedValue="OABQ02-Locate Closest Restroom" nciodm:ExtCodeID="C103704">
                    <nciodm:CDISCSynonym>OABQ02-Locate Closest Restroom</nciodm:CDISCSynonym>
                    <nciodm:CDISCDefinition>The Overactive Bladder Questionnaire Short Form - Caused you to locate the closest restroom as soon as you arrive at a place you have never been?</nciodm:CDISCDefinition>
                    <nciodm:PreferredTerm>OAB-q Short Form - Locate Closest Restroom as Soon as You Arrive</nciodm:PreferredTerm>
                </EnumeratedItem>
                <EnumeratedItem CodedValue="OABQ02-Nighttime Urination" nciodm:ExtCodeID="C103689">
                    <nciodm:CDISCSynonym>OABQ02-Nighttime Urination</nciodm:CDISCSynonym>
                    <nciodm:CDISCDefinition>The Overactive Bladder Questionnaire Short Form - Nighttime urination?</nciodm:CDISCDefinition>
                    <nciodm:PreferredTerm>OAB-q Short Form - Nighttime Urination</nciodm:PreferredTerm>
                </EnumeratedItem>
                <EnumeratedItem CodedValue="OABQ02-Plan 'Escape Routes' to Restrooms" nciodm:ExtCodeID="C103692">
                    <nciodm:CDISCSynonym>OABQ02-Plan 'Escape Routes' to Restrooms</nciodm:CDISCSynonym>
                    <nciodm:CDISCDefinition>The Overactive Bladder Questionnaire Short Form - Caused you to plan "escape routes" to restrooms in public places?</nciodm:CDISCDefinition>
                    <nciodm:PreferredTerm>OAB-q Short Form - Plan 'Escape Routes' to Restrooms</nciodm:PreferredTerm>
                </EnumeratedItem>
                <EnumeratedItem CodedValue="OABQ02-Sudden Urge to Urinate No Warning" nciodm:ExtCodeID="C103687">
                    <nciodm:CDISCSynonym>OABQ02-Sudden Urge to Urinate No Warning</nciodm:CDISCSynonym>
                    <nciodm:CDISCDefinition>The Overactive Bladder Questionnaire Short Form - A sudden urge to urinate with little or no warning?</nciodm:CDISCDefinition>
                    <nciodm:PreferredTerm>OAB-q Short Form - Sudden Urge to Urinate with Little or No Warning</nciodm:PreferredTerm>
                </EnumeratedItem>
                <EnumeratedItem CodedValue="OABQ02-Uncomfortable Travel with Others" nciodm:ExtCodeID="C103700">
                    <nciodm:CDISCSynonym>OABQ02-Uncomfortable Travel with Others</nciodm:CDISCSynonym>
                    <nciodm:CDISCDefinition>The Overactive Bladder Questionnaire Short Form - Made you uncomfortable while travelling with others because of needing to stop for a restroom?</nciodm:CDISCDefinition>
                    <nciodm:PreferredTerm>OAB-q Short Form - Uncomfortable While Traveling With Others</nciodm:PreferredTerm>
                </EnumeratedItem>
                <EnumeratedItem CodedValue="OABQ02-Uncomfortable Urge to Urinate" nciodm:ExtCodeID="C103686">
                    <nciodm:CDISCSynonym>OABQ02-Uncomfortable Urge to Urinate</nciodm:CDISCSynonym>
                    <nciodm:CDISCDefinition>The Overactive Bladder Questionnaire Short Form - An uncomfortable urge to urinate?</nciodm:CDISCDefinition>
                    <nciodm:PreferredTerm>OAB-q Short Form - Uncomfortable Urge to Urinate</nciodm:PreferredTerm>
                </EnumeratedItem>
                <EnumeratedItem CodedValue="OABQ02-Urine Loss Strong Desire Urinate" nciodm:ExtCodeID="C103691">
                    <nciodm:CDISCSynonym>OABQ02-Urine Loss Strong Desire Urinate</nciodm:CDISCSynonym>
                    <nciodm:CDISCDefinition>The Overactive Bladder Questionnaire Short Form - Urine loss associated with strong desire to urinate?</nciodm:CDISCDefinition>
                    <nciodm:PreferredTerm>OAB-q Short Form - Urine Loss Associated with a Strong Desire to Urinate</nciodm:PreferredTerm>
                </EnumeratedItem>
                <EnumeratedItem CodedValue="OABQ02-Waking Up at Night had to Urinate" nciodm:ExtCodeID="C103690">
                    <nciodm:CDISCSynonym>OABQ02-Waking Up at Night had to Urinate</nciodm:CDISCSynonym>
                    <nciodm:CDISCDefinition>The Overactive Bladder Questionnaire Short Form - Waking up at night because you had to urinate?</nciodm:CDISCDefinition>
                    <nciodm:PreferredTerm>OAB-q Short Form - Waking Up at Night Because You had to Urinate</nciodm:PreferredTerm>
                </EnumeratedItem>
                <nciodm:CDISCSubmissionValue>OAB-Q SHORT FORM TEST</nciodm:CDISCSubmissionValue>
                <nciodm:CDISCSynonym>The Overactive Bladder Questionnaire Short Form Test Name</nciodm:CDISCSynonym>
                <nciodm:PreferredTerm>CDISC Questionnaire OAB-q Short Form Test Name Terminology</nciodm:PreferredTerm>
            </CodeList>
            
