<CodeList xmlns="http://www.cdisc.org/ns/odm/v1.3" xmlns:nciodm="http://ncicb.nci.nih.gov/xml/odm/EVS/CDISC" xmlns:xs="http://www.w3.org/2001/XMLSchema-instance" OID="CL.C130254.FAC015TN" Name="Functional Assessment of Cancer Therapy-Hepatobiliary Version 4 Questionnaire Test Name" DataType="text" nciodm:ExtCodeID="C130254" nciodm:CodeListExtensible="No">
                <Description>
                    <TranslatedText xml:lang="en">Functional Assessment of Cancer Therapy-Hepatobiliary Version 4 test name.</TranslatedText>
                </Description>
                <EnumeratedItem CodedValue="FAC015-Able to Do My Usual Activities" nciodm:ExtCodeID="C130495">
                    <nciodm:CDISCSynonym>FAC015-Able to Do My Usual Activities</nciodm:CDISCSynonym>
                    <nciodm:CDISCDefinition>Functional Assessment of Cancer Therapy-Hepatobiliary Version 4 - Additional Concerns: I am able to do my usual activities.</nciodm:CDISCDefinition>
                    <nciodm:PreferredTerm>FACT-HEP Version 4 - Able to Do My Usual Activities</nciodm:PreferredTerm>
                </EnumeratedItem>
                <EnumeratedItem CodedValue="FAC015-Bothered by Jaundice/Yellow Skin" nciodm:ExtCodeID="C130496">
                    <nciodm:CDISCSynonym>FAC015-Bothered by Jaundice/Yellow Skin</nciodm:CDISCSynonym>
                    <nciodm:CDISCDefinition>Functional Assessment of Cancer Therapy-Hepatobiliary Version 4 - Additional Concerns: I am bothered by jaundice or yellow color to my skin.</nciodm:CDISCDefinition>
                    <nciodm:PreferredTerm>FACT-HEP Version 4 - Bothered by Jaundice or Yellow Skin</nciodm:PreferredTerm>
                </EnumeratedItem>
                <EnumeratedItem CodedValue="FAC015-Bothered by Treatment Side Effect" nciodm:ExtCodeID="C130462">
                    <nciodm:CDISCSynonym>FAC015-Bothered by Treatment Side Effect</nciodm:CDISCSynonym>
                    <nciodm:CDISCDefinition>Functional Assessment of Cancer Therapy-Hepatobiliary Version 4 - Physical Well-Being: I am bothered by side effects of treatment.</nciodm:CDISCDefinition>
                    <nciodm:PreferredTerm>FACT-HEP Version 4 - Bothered by Treatment Side Effect</nciodm:PreferredTerm>
                </EnumeratedItem>
                <EnumeratedItem CodedValue="FAC015-Content With Quality of My Life" nciodm:ExtCodeID="C130484">
                    <nciodm:CDISCSynonym>FAC015-Content With Quality of My Life</nciodm:CDISCSynonym>
                    <nciodm:CDISCDefinition>Functional Assessment of Cancer Therapy-Hepatobiliary Version 4 - Functional Well-Being: I am content with the quality of my life right now.</nciodm:CDISCDefinition>
                    <nciodm:PreferredTerm>FACT-HEP Version 4 - Content With Quality of My Life</nciodm:PreferredTerm>
                </EnumeratedItem>
                <EnumeratedItem CodedValue="FAC015-Discomfort/Pain in Stomach Area" nciodm:ExtCodeID="C130502">
                    <nciodm:CDISCSynonym>FAC015-Discomfort/Pain in Stomach Area</nciodm:CDISCSynonym>
                    <nciodm:CDISCDefinition>Functional Assessment of Cancer Therapy-Hepatobiliary Version 4 - Additional Concerns: I have discomfort or pain in my stomach area.</nciodm:CDISCDefinition>
                    <nciodm:PreferredTerm>FACT-HEP Version 4 - Discomfort or Pain in Stomach Area</nciodm:PreferredTerm>
                </EnumeratedItem>
                <EnumeratedItem CodedValue="FAC015-Enjoy Things I Usually Do for Fun" nciodm:ExtCodeID="C130483">
                    <nciodm:CDISCSynonym>FAC015-Enjoy Things I Usually Do for Fun</nciodm:CDISCSynonym>
                    <nciodm:CDISCDefinition>Functional Assessment of Cancer Therapy-Hepatobiliary Version 4 - Functional Well-Being: I am enjoying the things I usually do for fun.</nciodm:CDISCDefinition>
                    <nciodm:PreferredTerm>FACT-HEP Version 4 - Enjoy Things I Usually Do for Fun</nciodm:PreferredTerm>
                </EnumeratedItem>
                <EnumeratedItem CodedValue="FAC015-Get Emotional Support From Family" nciodm:ExtCodeID="C130466">
                    <nciodm:CDISCSynonym>FAC015-Get Emotional Support From Family</nciodm:CDISCSynonym>
                    <nciodm:CDISCDefinition>Functional Assessment of Cancer Therapy-Hepatobiliary Version 4 - Social/Family Well-Being: I get emotional support from my family.</nciodm:CDISCDefinition>
                    <nciodm:PreferredTerm>FACT-HEP Version 4 - Get Emotional Support From Family</nciodm:PreferredTerm>
                </EnumeratedItem>
                <EnumeratedItem CodedValue="FAC015-Had Change in the Way Food Tastes" nciodm:ExtCodeID="C130499">
                    <nciodm:CDISCSynonym>FAC015-Had Change in the Way Food Tastes</nciodm:CDISCSynonym>
                    <nciodm:CDISCDefinition>Functional Assessment of Cancer Therapy-Hepatobiliary Version 4 - Additional Concerns: I have had a change in the way food tastes.</nciodm:CDISCDefinition>
                    <nciodm:PreferredTerm>FACT-HEP Version 4 - Had Change in the Way Food Tastes</nciodm:PreferredTerm>
                </EnumeratedItem>
                <EnumeratedItem CodedValue="FAC015-I Am Able to Enjoy Life" nciodm:ExtCodeID="C130480">
                    <nciodm:CDISCSynonym>FAC015-I Am Able to Enjoy Life</nciodm:CDISCSynonym>
                    <nciodm:CDISCDefinition>Functional Assessment of Cancer Therapy-Hepatobiliary Version 4 - Functional Well-Being: I am able to enjoy life.</nciodm:CDISCDefinition>
                    <nciodm:PreferredTerm>FACT-HEP Version 4 - I Am Able to Enjoy Life</nciodm:PreferredTerm>
                </EnumeratedItem>
                <EnumeratedItem CodedValue="FAC015-I Am Able to Work" nciodm:ExtCodeID="C130478">
                    <nciodm:CDISCSynonym>FAC015-I Am Able to Work</nciodm:CDISCSynonym>
                    <nciodm:CDISCDefinition>Functional Assessment of Cancer Therapy-Hepatobiliary Version 4 - Functional Well-Being: I am able to work (include work at home).</nciodm:CDISCDefinition>
                    <nciodm:PreferredTerm>FACT-HEP Version 4 - I Am Able to Work</nciodm:PreferredTerm>
                </EnumeratedItem>
                <EnumeratedItem CodedValue="FAC015-I Am Bothered by Constipation" nciodm:ExtCodeID="C130493">
                    <nciodm:CDISCSynonym>FAC015-I Am Bothered by Constipation</nciodm:CDISCSynonym>
                    <nciodm:CDISCDefinition>Functional Assessment of Cancer Therapy-Hepatobiliary Version 4 - Additional Concerns: I am bothered by constipation.</nciodm:CDISCDefinition>
                    <nciodm:PreferredTerm>FACT-HEP Version 4 - I Am Bothered by Constipation</nciodm:PreferredTerm>
                </EnumeratedItem>
                <EnumeratedItem CodedValue="FAC015-I Am Forced to Spend Time in Bed" nciodm:ExtCodeID="C130464">
                    <nciodm:CDISCSynonym>FAC015-I Am Forced to Spend Time in Bed</nciodm:CDISCSynonym>
                    <nciodm:CDISCDefinition>Functional Assessment of Cancer Therapy-Hepatobiliary Version 4 - Physical Well-Being: I am forced to spend time in bed.</nciodm:CDISCDefinition>
                    <nciodm:PreferredTerm>FACT-HEP Version 4 - I Am Forced to Spend Time in Bed</nciodm:PreferredTerm>
                </EnumeratedItem>
                <EnumeratedItem CodedValue="FAC015-I Am Losing Weight" nciodm:ExtCodeID="C130486">
                    <nciodm:CDISCSynonym>FAC015-I Am Losing Weight</nciodm:CDISCSynonym>
                    <nciodm:CDISCDefinition>Functional Assessment of Cancer Therapy-Hepatobiliary Version 4 - Additional Concerns: I am losing weight.</nciodm:CDISCDefinition>
                    <nciodm:PreferredTerm>FACT-HEP Version 4 - I Am Losing Weight</nciodm:PreferredTerm>
                </EnumeratedItem>
                <EnumeratedItem CodedValue="FAC015-I Am Satisfied With My Sex Life" nciodm:ExtCodeID="C130471">
                    <nciodm:CDISCSynonym>FAC015-I Am Satisfied With My Sex Life</nciodm:CDISCSynonym>
                    <nciodm:CDISCDefinition>Functional Assessment of Cancer Therapy-Hepatobiliary Version 4 - Social/Family Well-Being: I am satisfied with my sex life.</nciodm:CDISCDefinition>
                    <nciodm:PreferredTerm>FACT-HEP Version 4 - I Am Satisfied With My Sex Life</nciodm:PreferredTerm>
                </EnumeratedItem>
                <EnumeratedItem CodedValue="FAC015-I Am Sleeping Well" nciodm:ExtCodeID="C130482">
                    <nciodm:CDISCSynonym>FAC015-I Am Sleeping Well</nciodm:CDISCSynonym>
                    <nciodm:CDISCDefinition>Functional Assessment of Cancer Therapy-Hepatobiliary Version 4 - Functional Well-Being: I am sleeping well.</nciodm:CDISCDefinition>
                    <nciodm:PreferredTerm>FACT-HEP Version 4 - I Am Sleeping Well</nciodm:PreferredTerm>
                </EnumeratedItem>
                <EnumeratedItem CodedValue="FAC015-I Can Digest My Food Well" nciodm:ExtCodeID="C130488">
                    <nciodm:CDISCSynonym>FAC015-I Can Digest My Food Well</nciodm:CDISCSynonym>
                    <nciodm:CDISCDefinition>Functional Assessment of Cancer Therapy-Hepatobiliary Version 4 - Additional Concerns: I can digest my food well.</nciodm:CDISCDefinition>
                    <nciodm:PreferredTerm>FACT-HEP Version 4 - I Can Digest My Food Well</nciodm:PreferredTerm>
                </EnumeratedItem>
                <EnumeratedItem CodedValue="FAC015-I Feel Close to My Friends" nciodm:ExtCodeID="C130465">
                    <nciodm:CDISCSynonym>FAC015-I Feel Close to My Friends</nciodm:CDISCSynonym>
                    <nciodm:CDISCDefinition>Functional Assessment of Cancer Therapy-Hepatobiliary Version 4 - Social/Family Well-Being: I feel close to my friends.</nciodm:CDISCDefinition>
                    <nciodm:PreferredTerm>FACT-HEP Version 4 - I Feel Close to My Friends</nciodm:PreferredTerm>
                </EnumeratedItem>
                <EnumeratedItem CodedValue="FAC015-I Feel Close to My Partner" nciodm:ExtCodeID="C130470">
                    <nciodm:CDISCSynonym>FAC015-I Feel Close to My Partner</nciodm:CDISCSynonym>
                    <nciodm:CDISCDefinition>Functional Assessment of Cancer Therapy-Hepatobiliary Version 4 - Social/Family Well-Being: I feel close to my partner (or the person who is my main support).</nciodm:CDISCDefinition>
                    <nciodm:PreferredTerm>FACT-HEP Version 4 - I Feel Close to My Partner</nciodm:PreferredTerm>
                </EnumeratedItem>
                <EnumeratedItem CodedValue="FAC015-I Feel Fatigued" nciodm:ExtCodeID="C130494">
                    <nciodm:CDISCSynonym>FAC015-I Feel Fatigued</nciodm:CDISCSynonym>
                    <nciodm:CDISCDefinition>Functional Assessment of Cancer Therapy-Hepatobiliary Version 4 - Additional Concerns: I feel fatigued.</nciodm:CDISCDefinition>
                    <nciodm:PreferredTerm>FACT-HEP Version 4 - I Feel Fatigued</nciodm:PreferredTerm>
                </EnumeratedItem>
                <EnumeratedItem CodedValue="FAC015-I Feel Ill" nciodm:ExtCodeID="C130463">
                    <nciodm:CDISCSynonym>FAC015-I Feel Ill</nciodm:CDISCSynonym>
                    <nciodm:CDISCDefinition>Functional Assessment of Cancer Therapy-Hepatobiliary Version 4 - Physical Well-Being: I feel ill.</nciodm:CDISCDefinition>
                    <nciodm:PreferredTerm>FACT-HEP Version 4 - I Feel Ill</nciodm:PreferredTerm>
                </EnumeratedItem>
                <EnumeratedItem CodedValue="FAC015-I Feel Nervous" nciodm:ExtCodeID="C130475">
                    <nciodm:CDISCSynonym>FAC015-I Feel Nervous</nciodm:CDISCSynonym>
                    <nciodm:CDISCDefinition>Functional Assessment of Cancer Therapy-Hepatobiliary Version 4 - Emotional Well-Being: I feel nervous.</nciodm:CDISCDefinition>
                    <nciodm:PreferredTerm>FACT-HEP Version 4 - I Feel Nervous</nciodm:PreferredTerm>
                </EnumeratedItem>
                <EnumeratedItem CodedValue="FAC015-I Feel Sad" nciodm:ExtCodeID="C130472">
                    <nciodm:CDISCSynonym>FAC015-I Feel Sad</nciodm:CDISCSynonym>
                    <nciodm:CDISCDefinition>Functional Assessment of Cancer Therapy-Hepatobiliary Version 4 - Emotional Well-Being: I feel sad.</nciodm:CDISCDefinition>
                    <nciodm:PreferredTerm>FACT-HEP Version 4 - I Feel Sad</nciodm:PreferredTerm>
                </EnumeratedItem>
                <EnumeratedItem CodedValue="FAC015-I Get Support From My Friends" nciodm:ExtCodeID="C130467">
                    <nciodm:CDISCSynonym>FAC015-I Get Support From My Friends</nciodm:CDISCSynonym>
                    <nciodm:CDISCDefinition>Functional Assessment of Cancer Therapy-Hepatobiliary Version 4 - Social/Family Well-Being: I get support from my friends.</nciodm:CDISCDefinition>
                    <nciodm:PreferredTerm>FACT-HEP Version 4 - I Get Support From My Friends</nciodm:PreferredTerm>
                </EnumeratedItem>
                <EnumeratedItem CodedValue="FAC015-I Have a Good Appetite" nciodm:ExtCodeID="C130490">
                    <nciodm:CDISCSynonym>FAC015-I Have a Good Appetite</nciodm:CDISCSynonym>
                    <nciodm:CDISCDefinition>Functional Assessment of Cancer Therapy-Hepatobiliary Version 4 - Additional Concerns: I have a good appetite.</nciodm:CDISCDefinition>
                    <nciodm:PreferredTerm>FACT-HEP Version 4 - I Have a Good Appetite</nciodm:PreferredTerm>
                </EnumeratedItem>
                <EnumeratedItem CodedValue="FAC015-I Have a Lack of Energy" nciodm:ExtCodeID="C130458">
                    <nciodm:CDISCSynonym>FAC015-I Have a Lack of Energy</nciodm:CDISCSynonym>
                    <nciodm:CDISCDefinition>Functional Assessment of Cancer Therapy-Hepatobiliary Version 4 - Physical Well-Being: I have a lack of energy.</nciodm:CDISCDefinition>
                    <nciodm:PreferredTerm>FACT-HEP Version 4 - I Have a Lack of Energy</nciodm:PreferredTerm>
                </EnumeratedItem>
                <EnumeratedItem CodedValue="FAC015-I Have Accepted My Illness" nciodm:ExtCodeID="C130481">
                    <nciodm:CDISCSynonym>FAC015-I Have Accepted My Illness</nciodm:CDISCSynonym>
                    <nciodm:CDISCDefinition>Functional Assessment of Cancer Therapy-Hepatobiliary Version 4 - Functional Well-Being: I have accepted my illness.</nciodm:CDISCDefinition>
                    <nciodm:PreferredTerm>FACT-HEP Version 4 - I Have Accepted My Illness</nciodm:PreferredTerm>
                </EnumeratedItem>
                <EnumeratedItem CodedValue="FAC015-I Have Control of My Bowels" nciodm:ExtCodeID="C130487">
                    <nciodm:CDISCSynonym>FAC015-I Have Control of My Bowels</nciodm:CDISCSynonym>
                    <nciodm:CDISCDefinition>Functional Assessment of Cancer Therapy-Hepatobiliary Version 4 - Additional Concerns: I have control of my bowels.</nciodm:CDISCDefinition>
                    <nciodm:PreferredTerm>FACT-HEP Version 4 - I Have Control of My Bowels</nciodm:PreferredTerm>
                </EnumeratedItem>
                <EnumeratedItem CodedValue="FAC015-I Have Diarrhea" nciodm:ExtCodeID="C130489">
                    <nciodm:CDISCSynonym>FAC015-I Have Diarrhea</nciodm:CDISCSynonym>
                    <nciodm:CDISCDefinition>Functional Assessment of Cancer Therapy-Hepatobiliary Version 4 - Additional Concerns: I have diarrhea (diarrhoea).</nciodm:CDISCDefinition>
                    <nciodm:PreferredTerm>FACT-HEP Version 4 - I Have Diarrhea</nciodm:PreferredTerm>
                </EnumeratedItem>
                <EnumeratedItem CodedValue="FAC015-I Have Had Chills" nciodm:ExtCodeID="C130500">
                    <nciodm:CDISCSynonym>FAC015-I Have Had Chills</nciodm:CDISCSynonym>
                    <nciodm:CDISCDefinition>Functional Assessment of Cancer Therapy-Hepatobiliary Version 4 - Additional Concerns: I have had chills.</nciodm:CDISCDefinition>
                    <nciodm:PreferredTerm>FACT-HEP Version 4 - I Have Had Chills</nciodm:PreferredTerm>
                </EnumeratedItem>
                <EnumeratedItem CodedValue="FAC015-I Have Had Fevers" nciodm:ExtCodeID="C130497">
                    <nciodm:CDISCSynonym>FAC015-I Have Had Fevers</nciodm:CDISCSynonym>
                    <nciodm:CDISCDefinition>Functional Assessment of Cancer Therapy-Hepatobiliary Version 4 - Additional Concerns: I have had fevers (episodes of high body temperature).</nciodm:CDISCDefinition>
                    <nciodm:PreferredTerm>FACT-HEP Version 4 - I Have Had Fevers</nciodm:PreferredTerm>
                </EnumeratedItem>
                <EnumeratedItem CodedValue="FAC015-I Have Had Itching" nciodm:ExtCodeID="C130498">
                    <nciodm:CDISCSynonym>FAC015-I Have Had Itching</nciodm:CDISCSynonym>
                    <nciodm:CDISCDefinition>Functional Assessment of Cancer Therapy-Hepatobiliary Version 4 - Additional Concerns: I have had itching.</nciodm:CDISCDefinition>
                    <nciodm:PreferredTerm>FACT-HEP Version 4 - I Have Had Itching</nciodm:PreferredTerm>
                </EnumeratedItem>
                <EnumeratedItem CodedValue="FAC015-I Have Nausea" nciodm:ExtCodeID="C130459">
                    <nciodm:CDISCSynonym>FAC015-I Have Nausea</nciodm:CDISCSynonym>
                    <nciodm:CDISCDefinition>Functional Assessment of Cancer Therapy-Hepatobiliary Version 4 - Physical Well-Being: I have nausea.</nciodm:CDISCDefinition>
                    <nciodm:PreferredTerm>FACT-HEP Version 4 - I Have Nausea</nciodm:PreferredTerm>
                </EnumeratedItem>
                <EnumeratedItem CodedValue="FAC015-I Have Pain" nciodm:ExtCodeID="C130461">
                    <nciodm:CDISCSynonym>FAC015-I Have Pain</nciodm:CDISCSynonym>
                    <nciodm:CDISCDefinition>Functional Assessment of Cancer Therapy-Hepatobiliary Version 4 - Physical Well-Being: I have pain.</nciodm:CDISCDefinition>
                    <nciodm:PreferredTerm>FACT-HEP Version 4 - I Have Pain</nciodm:PreferredTerm>
                </EnumeratedItem>
                <EnumeratedItem CodedValue="FAC015-I Have Pain in My Back" nciodm:ExtCodeID="C130492">
                    <nciodm:CDISCSynonym>FAC015-I Have Pain in My Back</nciodm:CDISCSynonym>
                    <nciodm:CDISCDefinition>Functional Assessment of Cancer Therapy-Hepatobiliary Version 4 - Additional Concerns: I have pain in my back.</nciodm:CDISCDefinition>
                    <nciodm:PreferredTerm>FACT-HEP Version 4 - I Have Pain in My Back</nciodm:PreferredTerm>
                </EnumeratedItem>
                <EnumeratedItem CodedValue="FAC015-I Worry About Dying" nciodm:ExtCodeID="C130476">
                    <nciodm:CDISCSynonym>FAC015-I Worry About Dying</nciodm:CDISCSynonym>
                    <nciodm:CDISCDefinition>Functional Assessment of Cancer Therapy-Hepatobiliary Version 4 - Emotional Well-Being: I worry about dying.</nciodm:CDISCDefinition>
                    <nciodm:PreferredTerm>FACT-HEP Version 4 - I Worry About Dying</nciodm:PreferredTerm>
                </EnumeratedItem>
                <EnumeratedItem CodedValue="FAC015-Losing Hope Against Illness" nciodm:ExtCodeID="C130474">
                    <nciodm:CDISCSynonym>FAC015-Losing Hope Against Illness</nciodm:CDISCSynonym>
                    <nciodm:CDISCDefinition>Functional Assessment of Cancer Therapy-Hepatobiliary Version 4 - Emotional Well-Being: I am losing hope in the fight against my illness.</nciodm:CDISCDefinition>
                    <nciodm:PreferredTerm>FACT-HEP Version 4 - Losing Hope Against Illness</nciodm:PreferredTerm>
                </EnumeratedItem>
                <EnumeratedItem CodedValue="FAC015-My Family Has Accepted My Illness" nciodm:ExtCodeID="C130468">
                    <nciodm:CDISCSynonym>FAC015-My Family Has Accepted My Illness</nciodm:CDISCSynonym>
                    <nciodm:CDISCDefinition>Functional Assessment of Cancer Therapy-Hepatobiliary Version 4 - Social/Family Well-Being: My family has accepted my illness.</nciodm:CDISCDefinition>
                    <nciodm:PreferredTerm>FACT-HEP Version 4 - My Family Has Accepted My Illness</nciodm:PreferredTerm>
                </EnumeratedItem>
                <EnumeratedItem CodedValue="FAC015-My Mouth Is Dry" nciodm:ExtCodeID="C130501">
                    <nciodm:CDISCSynonym>FAC015-My Mouth Is Dry</nciodm:CDISCSynonym>
                    <nciodm:CDISCDefinition>Functional Assessment of Cancer Therapy-Hepatobiliary Version 4 - Additional Concerns: My mouth is dry.</nciodm:CDISCDefinition>
                    <nciodm:PreferredTerm>FACT-HEP Version 4 - My Mouth Is Dry</nciodm:PreferredTerm>
                </EnumeratedItem>
                <EnumeratedItem CodedValue="FAC015-My Work Is Fulfilling" nciodm:ExtCodeID="C130479">
                    <nciodm:CDISCSynonym>FAC015-My Work Is Fulfilling</nciodm:CDISCSynonym>
                    <nciodm:CDISCDefinition>Functional Assessment of Cancer Therapy-Hepatobiliary Version 4 - Functional Well-Being: My work (include work at home) is fulfilling.</nciodm:CDISCDefinition>
                    <nciodm:PreferredTerm>FACT-HEP Version 4 - My Work Is Fulfilling</nciodm:PreferredTerm>
                </EnumeratedItem>
                <EnumeratedItem CodedValue="FAC015-Satisfied Communication Illness" nciodm:ExtCodeID="C130469">
                    <nciodm:CDISCSynonym>FAC015-Satisfied Communication Illness</nciodm:CDISCSynonym>
                    <nciodm:CDISCDefinition>Functional Assessment of Cancer Therapy-Hepatobiliary Version 4 - Social/Family Well-Being: I am satisfied with family communication about my illness.</nciodm:CDISCDefinition>
                    <nciodm:PreferredTerm>FACT-HEP Version 4 - Satisfied With Communication About Illness</nciodm:PreferredTerm>
                </EnumeratedItem>
                <EnumeratedItem CodedValue="FAC015-Satisfied With How I Am Coping" nciodm:ExtCodeID="C130473">
                    <nciodm:CDISCSynonym>FAC015-Satisfied With How I Am Coping</nciodm:CDISCSynonym>
                    <nciodm:CDISCDefinition>Functional Assessment of Cancer Therapy-Hepatobiliary Version 4 - Emotional Well-Being: I am satisfied with how I am coping with my illness.</nciodm:CDISCDefinition>
                    <nciodm:PreferredTerm>FACT-HEP Version 4 - Satisfied With How I Am Coping</nciodm:PreferredTerm>
                </EnumeratedItem>
                <EnumeratedItem CodedValue="FAC015-Swelling/Cramps in Stomach Area" nciodm:ExtCodeID="C130485">
                    <nciodm:CDISCSynonym>FAC015-Swelling/Cramps in Stomach Area</nciodm:CDISCSynonym>
                    <nciodm:CDISCDefinition>Functional Assessment of Cancer Therapy-Hepatobiliary Version 4 - Additional Concerns: I have swelling or cramps in my stomach area.</nciodm:CDISCDefinition>
                    <nciodm:PreferredTerm>FACT-HEP Version 4 - Swelling or Cramps in Stomach Area</nciodm:PreferredTerm>
                </EnumeratedItem>
                <EnumeratedItem CodedValue="FAC015-Trouble Meeting Needs of Family" nciodm:ExtCodeID="C130460">
                    <nciodm:CDISCSynonym>FAC015-Trouble Meeting Needs of Family</nciodm:CDISCSynonym>
                    <nciodm:CDISCDefinition>Functional Assessment of Cancer Therapy-Hepatobiliary Version 4 - Physical Well-Being: Because of my physical condition, I have trouble meeting the needs of my family.</nciodm:CDISCDefinition>
                    <nciodm:PreferredTerm>FACT-HEP Version 4 - Trouble Meeting Needs of Family</nciodm:PreferredTerm>
                </EnumeratedItem>
                <EnumeratedItem CodedValue="FAC015-Unhappy About Change in My Appear" nciodm:ExtCodeID="C130491">
                    <nciodm:CDISCSynonym>FAC015-Unhappy About Change in My Appear</nciodm:CDISCSynonym>
                    <nciodm:CDISCDefinition>Functional Assessment of Cancer Therapy-Hepatobiliary Version 4 - Additional Concerns: I am unhappy about a change in my appearance.</nciodm:CDISCDefinition>
                    <nciodm:PreferredTerm>FACT-HEP Version 4 - Unhappy About Change in My Appearance</nciodm:PreferredTerm>
                </EnumeratedItem>
                <EnumeratedItem CodedValue="FAC015-Worry My Condition Will Get Worse" nciodm:ExtCodeID="C130477">
                    <nciodm:CDISCSynonym>FAC015-Worry My Condition Will Get Worse</nciodm:CDISCSynonym>
                    <nciodm:CDISCDefinition>Functional Assessment of Cancer Therapy-Hepatobiliary Version 4 - Emotional Well-Being: I worry that my condition will get worse.</nciodm:CDISCDefinition>
                    <nciodm:PreferredTerm>FACT-HEP Version 4 - Worry My Condition Will Get Worse</nciodm:PreferredTerm>
                </EnumeratedItem>
                <nciodm:CDISCSubmissionValue>FAC015TN</nciodm:CDISCSubmissionValue>
                <nciodm:CDISCSynonym>Functional Assessment of Cancer Therapy-Hepatobiliary Version 4 Questionnaire Test Name</nciodm:CDISCSynonym>
                <nciodm:PreferredTerm>CDISC Questionnaire FACT-HEP Version 4 Test Name Terminology</nciodm:PreferredTerm>
            </CodeList>
            
