<CodeList xmlns="http://www.cdisc.org/ns/odm/v1.3" xmlns:nciodm="http://ncicb.nci.nih.gov/xml/odm/EVS/CDISC" xmlns:xs="http://www.w3.org/2001/XMLSchema-instance" OID="CL.C120991.MELD01TC" Name="Model for End Stage Liver Disease Clinical Classification Test Code" DataType="text" nciodm:ExtCodeID="C120991" nciodm:CodeListExtensible="No">
                <Description>
                    <TranslatedText xml:lang="en">Model for End Stage Liver Disease test code.</TranslatedText>
                </Description>
                <EnumeratedItem CodedValue="MELD0101" nciodm:ExtCodeID="C121076">
                    <nciodm:CDISCSynonym>MELD01-Score</nciodm:CDISCSynonym>
                    <nciodm:CDISCDefinition>Model for End Stage Liver Disease - MELD score.</nciodm:CDISCDefinition>
                    <nciodm:PreferredTerm>MELD - Score</nciodm:PreferredTerm>
                </EnumeratedItem>
                <nciodm:CDISCSubmissionValue>MELD01TC</nciodm:CDISCSubmissionValue>
                <nciodm:CDISCSynonym>Model for End Stage Liver Disease Clinical Classification Test Code</nciodm:CDISCSynonym>
                <nciodm:PreferredTerm>CDISC Clinical Classification MELD Test Code Terminology</nciodm:PreferredTerm>
            </CodeList>
            
