<CodeList xmlns="http://www.cdisc.org/ns/odm/v1.3" xmlns:nciodm="http://ncicb.nci.nih.gov/xml/odm/EVS/CDISC" xmlns:xs="http://www.w3.org/2001/XMLSchema-instance" OID="CL.C124666.ASCVD 10-YEAR RISK TESTCD" Name="Atherosclerotic Cardiovascular Disease 10-Year Risk Estimator Clinical Classification Test Code" DataType="text" nciodm:ExtCodeID="C124666" nciodm:CodeListExtensible="No">
                <Description>
                    <TranslatedText xml:lang="en">Atherosclerotic Cardiovascular Disease 10-Year Risk Estimator test code.</TranslatedText>
                </Description>
                <EnumeratedItem CodedValue="ASCVD101" nciodm:ExtCodeID="C124720">
                    <nciodm:CDISCSynonym>ASCVD1-ASCVD 10-Year Risk Score</nciodm:CDISCSynonym>
                    <nciodm:CDISCDefinition>Atherosclerotic Cardiovascular Disease 10-Year Risk Estimator - Risk score.</nciodm:CDISCDefinition>
                    <nciodm:PreferredTerm>ASCVD 10-Year Risk Estimator - Risk Score</nciodm:PreferredTerm>
                </EnumeratedItem>
                <nciodm:CDISCSubmissionValue>ASCVD 10-YEAR RISK TESTCD</nciodm:CDISCSubmissionValue>
                <nciodm:CDISCSynonym>Atherosclerotic Cardiovascular Disease 10-Year Risk Estimator Clinical Classification Test Code</nciodm:CDISCSynonym>
                <nciodm:PreferredTerm>CDISC Clinical Classification Atherosclerotic Cardiovascular Disease 10-Year Risk Estimator Test Code Terminology</nciodm:PreferredTerm>
            </CodeList>
            
