<CodeList xmlns="http://www.cdisc.org/ns/odm/v1.3" xmlns:nciodm="http://ncicb.nci.nih.gov/xml/odm/EVS/CDISC" xmlns:xs="http://www.w3.org/2001/XMLSchema-instance" OID="CL.C74558.DSCAT" Name="Category for Disposition Event" DataType="text" nciodm:ExtCodeID="C74558" nciodm:CodeListExtensible="No">
                <Description>
                    <TranslatedText xml:lang="en">Classifications that describe and group pertinent events that occur throughout the conduct of a clinical trial.</TranslatedText>
                </Description>
                <EnumeratedItem CodedValue="DISPOSITION EVENT" nciodm:ExtCodeID="C74590">
                    <nciodm:CDISCSynonym>Disposition Event</nciodm:CDISCSynonym>
                    <nciodm:CDISCDefinition>The group of incidents that occur during a clinical trial and describe whether a subject completed the study epoch or the reason this event did not occur. The subject's disposition is often described for each phase of the study.</nciodm:CDISCDefinition>
                    <nciodm:PreferredTerm>Protocol Disposition Event</nciodm:PreferredTerm>
                </EnumeratedItem>
                <EnumeratedItem CodedValue="OTHER EVENT" nciodm:ExtCodeID="C74589">
                    <nciodm:CDISCSynonym>Other Event</nciodm:CDISCSynonym>
                    <nciodm:CDISCDefinition>Other important events that occur during a trial but are not driven by protocol requirements.</nciodm:CDISCDefinition>
                    <nciodm:PreferredTerm>Protocol Event</nciodm:PreferredTerm>
                </EnumeratedItem>
                <EnumeratedItem CodedValue="PROTOCOL MILESTONE" nciodm:ExtCodeID="C74588">
                    <nciodm:CDISCSynonym>Protocol Milestone</nciodm:CDISCSynonym>
                    <nciodm:CDISCDefinition>Occurrences within some epochs that are initiated by a protocol-specified event. The most common protocol milestone is "Informed Consent Obtained" which usually documents the start of the study.</nciodm:CDISCDefinition>
                    <nciodm:PreferredTerm>Protocol Milestone</nciodm:PreferredTerm>
                </EnumeratedItem>
                <nciodm:CDISCSubmissionValue>DSCAT</nciodm:CDISCSubmissionValue>
                <nciodm:CDISCSynonym>Category for Disposition Event</nciodm:CDISCSynonym>
                <nciodm:PreferredTerm>CDISC SDTM Category For Disposition Event Terminology</nciodm:PreferredTerm>
            </CodeList>
            
