<CodeList xmlns="http://www.cdisc.org/ns/odm/v1.3" xmlns:nciodm="http://ncicb.nci.nih.gov/xml/odm/EVS/CDISC" xmlns:xs="http://www.w3.org/2001/XMLSchema-instance" OID="CL.C124674.WHIVS1TC" Name="WHO Clinical Staging of HIV/AIDS for Adults and Adolescents Clinical Classification Test Code" DataType="text" nciodm:ExtCodeID="C124674" nciodm:CodeListExtensible="No">
                <Description>
                    <TranslatedText xml:lang="en">WHO Clinical Staging of HIV/AIDS for Adults and Adolescents test code.</TranslatedText>
                </Description>
                <EnumeratedItem CodedValue="WHIVS101" nciodm:ExtCodeID="C124777">
                    <nciodm:CDISCSynonym>WHIVS1-WHO Clinical Stage of HIV/AIDS</nciodm:CDISCSynonym>
                    <nciodm:CDISCDefinition>WHO Clinical Staging of HIV/AIDS for Adults and Adolescents - WHO clinical stage of HIV/AIDS.</nciodm:CDISCDefinition>
                    <nciodm:PreferredTerm>WHO Clinical Staging of HIV/AIDS for Adults and Adolescents - WHO Clinical Stage of HIV/AIDS</nciodm:PreferredTerm>
                </EnumeratedItem>
                <nciodm:CDISCSubmissionValue>WHIVS1TC</nciodm:CDISCSubmissionValue>
                <nciodm:CDISCSynonym>WHO Clinical Staging of HIV/AIDS for Adults and Adolescents Clinical Classification Test Code</nciodm:CDISCSynonym>
                <nciodm:PreferredTerm>CDISC Clinical Classification WHO Clinical Staging of HIV/AIDS for Adults and Adolescents Test Code Terminology</nciodm:PreferredTerm>
            </CodeList>
            
