<CodeList xmlns="http://www.cdisc.org/ns/odm/v1.3" xmlns:nciodm="http://ncicb.nci.nih.gov/xml/odm/EVS/CDISC" xmlns:xs="http://www.w3.org/2001/XMLSchema-instance" OID="CL.C71620.UNIT" Name="Unit" DataType="text" nciodm:ExtCodeID="C71620" nciodm:CodeListExtensible="Yes">
                <Description>
                    <TranslatedText xml:lang="en">Terminology codelist used for units within CDISC.</TranslatedText>
                </Description>
                <EnumeratedItem CodedValue="%" nciodm:ExtCodeID="C25613">
                    <nciodm:CDISCSynonym>Percentage</nciodm:CDISCSynonym>
                    <nciodm:CDISCDefinition>A fraction or ratio with 100 understood as the denominator. (NCI)</nciodm:CDISCDefinition>
                    <nciodm:PreferredTerm>Percentage</nciodm:PreferredTerm>
                </EnumeratedItem>
                <EnumeratedItem CodedValue="% INHIBITION" nciodm:ExtCodeID="C117963">
                    <nciodm:CDISCSynonym>Percent Inhibition</nciodm:CDISCSynonym>
                    <nciodm:CDISCDefinition>The rate of measured normal activity minus inhibited activity, divided by the rate of normal activity of a given object. It is expressed as a percentage.</nciodm:CDISCDefinition>
                    <nciodm:PreferredTerm>Percent Inhibition</nciodm:PreferredTerm>
                </EnumeratedItem>
                <EnumeratedItem CodedValue="%(v/v)" nciodm:ExtCodeID="C48571">
                    <nciodm:CDISCSynonym>Percent Volume per Volume</nciodm:CDISCSynonym>
                    <nciodm:CDISCSynonym>vol%</nciodm:CDISCSynonym>
                    <nciodm:CDISCDefinition>A percent ratio of volume to volume, defined by the equation: [volume of solute (in ml)/ volume of solution (in ml)](100), typically used for admixtures of solutions.(NCI)</nciodm:CDISCDefinition>
                    <nciodm:PreferredTerm>Percent Volume per Volume</nciodm:PreferredTerm>
                </EnumeratedItem>
                <EnumeratedItem CodedValue="%(w/v)" nciodm:ExtCodeID="C48527">
                    <nciodm:CDISCSynonym>Percent Weight per Volume</nciodm:CDISCSynonym>
                    <nciodm:CDISCDefinition>A percent ratio of weight to volume, defined by the equation: [weight of solute (in gm)/volume of solution (in dl)](100). Since the numerator and denominator of this ratio have different units, it is not a true percentage. A 1% w/v solution is defined as being 1 gram of solute dissolved in 100 milliliters of solvent.(NCI)</nciodm:CDISCDefinition>
                    <nciodm:PreferredTerm>Percent Mass per Volume</nciodm:PreferredTerm>
                </EnumeratedItem>
                <EnumeratedItem CodedValue="%(w/w)" nciodm:ExtCodeID="C48528">
                    <nciodm:CDISCSynonym>Percent Weight per Weight</nciodm:CDISCSynonym>
                    <nciodm:CDISCDefinition>A percent ratio of weight to weight, defined by the equation: [weight of solute (in gm)/weight of solution (in gm)](100).(NCI)</nciodm:CDISCDefinition>
                    <nciodm:PreferredTerm>Percent Mass per Mass</nciodm:PreferredTerm>
                </EnumeratedItem>
                <EnumeratedItem CodedValue="%/min" nciodm:ExtCodeID="C114240">
                    <nciodm:CDISCSynonym>Percent per Minute</nciodm:CDISCSynonym>
                    <nciodm:CDISCDefinition>A unit of frequency expressed as the percentage of entities or events per minute.</nciodm:CDISCDefinition>
                    <nciodm:PreferredTerm>Percent per Minute</nciodm:PreferredTerm>
                </EnumeratedItem>
                <EnumeratedItem CodedValue="/100 HPFs" nciodm:ExtCodeID="C102695">
                    <nciodm:CDISCSynonym>Per 100 High Powered Fields</nciodm:CDISCSynonym>
                    <nciodm:CDISCDefinition>A unit of measurement of the number of entities per unit of area equal to one hundred high powered fields.</nciodm:CDISCDefinition>
                    <nciodm:PreferredTerm>Per 100 High Powered Fields</nciodm:PreferredTerm>
                </EnumeratedItem>
                <EnumeratedItem CodedValue="/100 WBC" nciodm:ExtCodeID="C67219">
                    <nciodm:CDISCSynonym>Per 100 White Blood Cells</nciodm:CDISCSynonym>
                    <nciodm:CDISCDefinition>Natural number unit of measurement for a portion of a particular type of cell (excluding white blood cell subtypes) per 100 white blood cells.</nciodm:CDISCDefinition>
                    <nciodm:PreferredTerm>Per 100 White Blood Cells</nciodm:PreferredTerm>
                </EnumeratedItem>
                <EnumeratedItem CodedValue="/10^3" nciodm:ExtCodeID="C123634">
                    <nciodm:CDISCDefinition>A unit equal to one thousand entities used as a denominator to build a derived unit expressed as a ratio. (NCI)</nciodm:CDISCDefinition>
                    <nciodm:PreferredTerm>Per Thousand</nciodm:PreferredTerm>
                </EnumeratedItem>
                <EnumeratedItem CodedValue="/4.0 mL" nciodm:ExtCodeID="C122197">
                    <nciodm:CDISCDefinition>A volume unit equal to 4.0 milliliters used as a denominator to build a derived unit expressed as a ratio.</nciodm:CDISCDefinition>
                    <nciodm:PreferredTerm>per 4.0 Milliliters</nciodm:PreferredTerm>
                </EnumeratedItem>
                <EnumeratedItem CodedValue="/7.5 mL" nciodm:ExtCodeID="C122198">
                    <nciodm:CDISCDefinition>A volume unit equal to 7.5 milliliters used as a denominator to build a derived unit expressed as a ratio.</nciodm:CDISCDefinition>
                    <nciodm:PreferredTerm>per 7.5 Milliliters</nciodm:PreferredTerm>
                </EnumeratedItem>
                <EnumeratedItem CodedValue="/day" nciodm:ExtCodeID="C25473">
                    <nciodm:CDISCSynonym>Daily</nciodm:CDISCSynonym>
                    <nciodm:CDISCDefinition>A rate of occurrences within a period of time equal to one day.</nciodm:CDISCDefinition>
                    <nciodm:PreferredTerm>Daily</nciodm:PreferredTerm>
                </EnumeratedItem>
                <EnumeratedItem CodedValue="/h" nciodm:ExtCodeID="C66966">
                    <nciodm:CDISCSynonym>Per Hour</nciodm:CDISCSynonym>
                    <nciodm:CDISCDefinition>A rate of occurrences within a period of time equal to one hour.</nciodm:CDISCDefinition>
                    <nciodm:PreferredTerm>Per Hour</nciodm:PreferredTerm>
                </EnumeratedItem>
                <EnumeratedItem CodedValue="/HPF" nciodm:ExtCodeID="C96619">
                    <nciodm:CDISCSynonym>Per High Powered Field</nciodm:CDISCSynonym>
                    <nciodm:CDISCDefinition>A unit of measure equal to the instances of an entity per visual field of a microscope set to its maximum magnification power.</nciodm:CDISCDefinition>
                    <nciodm:PreferredTerm>Per High Powered Field</nciodm:PreferredTerm>
                </EnumeratedItem>
                <EnumeratedItem CodedValue="/kg" nciodm:ExtCodeID="C120844">
                    <nciodm:CDISCDefinition>A unit equal to one kilogram used as a denominator to build a derived unit expressed as a ratio. (NCI)</nciodm:CDISCDefinition>
                    <nciodm:PreferredTerm>Per Kilogram</nciodm:PreferredTerm>
                </EnumeratedItem>
                <EnumeratedItem CodedValue="/LPF" nciodm:ExtCodeID="C96620">
                    <nciodm:CDISCSynonym>Per Low Powered Field</nciodm:CDISCSynonym>
                    <nciodm:CDISCDefinition>A unit of measure equal to the instances of an entity per visual field of a microscope set to its minimum magnification power.</nciodm:CDISCDefinition>
                    <nciodm:PreferredTerm>Per Low Powered Field</nciodm:PreferredTerm>
                </EnumeratedItem>
                <EnumeratedItem CodedValue="/min" nciodm:ExtCodeID="C66967">
                    <nciodm:CDISCDefinition>A rate of occurrences within a period of time equal to one minute.</nciodm:CDISCDefinition>
                    <nciodm:PreferredTerm>Per Minute</nciodm:PreferredTerm>
                </EnumeratedItem>
                <EnumeratedItem CodedValue="/mm2" nciodm:ExtCodeID="C122199">
                    <nciodm:CDISCDefinition>An area unit equal to one millimeter squared used as a denominator to build a derived unit expressed as a ratio.</nciodm:CDISCDefinition>
                    <nciodm:PreferredTerm>per Square Millimeter</nciodm:PreferredTerm>
                </EnumeratedItem>
                <EnumeratedItem CodedValue="/month" nciodm:ExtCodeID="C64498">
                    <nciodm:CDISCSynonym>Every Month</nciodm:CDISCSynonym>
                    <nciodm:CDISCSynonym>Per Month</nciodm:CDISCSynonym>
                    <nciodm:CDISCDefinition>Every month. (NCI)</nciodm:CDISCDefinition>
                    <nciodm:PreferredTerm>Monthly</nciodm:PreferredTerm>
                </EnumeratedItem>
                <EnumeratedItem CodedValue="/sec" nciodm:ExtCodeID="C66965">
                    <nciodm:CDISCDefinition>A rate of occurrences within a period of time equal to one second.</nciodm:CDISCDefinition>
                    <nciodm:PreferredTerm>Per Second</nciodm:PreferredTerm>
                </EnumeratedItem>
                <EnumeratedItem CodedValue="/VF" nciodm:ExtCodeID="C105516">
                    <nciodm:CDISCSynonym>Per Visual Field</nciodm:CDISCSynonym>
                    <nciodm:CDISCDefinition>A unit of measure equal to the instances of an entity per visual field of a microscope. (NCI)</nciodm:CDISCDefinition>
                    <nciodm:PreferredTerm>Per Visual Field</nciodm:PreferredTerm>
                </EnumeratedItem>
                <EnumeratedItem CodedValue="/wk" nciodm:ExtCodeID="C67069">
                    <nciodm:CDISCSynonym>Every week</nciodm:CDISCSynonym>
                    <nciodm:CDISCSynonym>Per Week</nciodm:CDISCSynonym>
                    <nciodm:CDISCSynonym>QS</nciodm:CDISCSynonym>
                    <nciodm:CDISCDefinition>Every week. (NCI)</nciodm:CDISCDefinition>
                    <nciodm:PreferredTerm>Weekly</nciodm:PreferredTerm>
                </EnumeratedItem>
                <EnumeratedItem CodedValue="1/(s*kPa)" nciodm:ExtCodeID="C127804">
                    <nciodm:CDISCDefinition>A unit of resistance equal to the inverse of one second times one kilopascal.</nciodm:CDISCDefinition>
                    <nciodm:PreferredTerm>One per Second Times Kilopascal</nciodm:PreferredTerm>
                </EnumeratedItem>
                <EnumeratedItem CodedValue="100 IU/mL" nciodm:ExtCodeID="C71185">
                    <nciodm:CDISCSynonym>100 International units/Milliliter</nciodm:CDISCSynonym>
                    <nciodm:CDISCDefinition>A unit of arbitrary substance concentration (biologic activity concentration) defined as the concentration of one hundred international units per one milliliter of system volume.(NCI)</nciodm:CDISCDefinition>
                    <nciodm:PreferredTerm>100 International Units per Milliliter</nciodm:PreferredTerm>
                </EnumeratedItem>
                <EnumeratedItem CodedValue="10^10/L" nciodm:ExtCodeID="C105517">
                    <nciodm:CDISCSynonym>10^4/mm3</nciodm:CDISCSynonym>
                    <nciodm:CDISCSynonym>10^4/uL</nciodm:CDISCSynonym>
                    <nciodm:CDISCSynonym>10^7/mL</nciodm:CDISCSynonym>
                    <nciodm:CDISCDefinition>A unit of measurement equal to 10 to the tenth power of entities per unit of volume equal to one liter. (NCI)</nciodm:CDISCDefinition>
                    <nciodm:PreferredTerm>Ten Billion Per Liter</nciodm:PreferredTerm>
                </EnumeratedItem>
                <EnumeratedItem CodedValue="10^11/L" nciodm:ExtCodeID="C105488">
                    <nciodm:CDISCSynonym>10^5/mm3</nciodm:CDISCSynonym>
                    <nciodm:CDISCSynonym>10^5/uL</nciodm:CDISCSynonym>
                    <nciodm:CDISCSynonym>10^8/mL</nciodm:CDISCSynonym>
                    <nciodm:CDISCDefinition>A unit of measurement equal to 10 to the eleventh power of entities per unit of volume equal to one liter.</nciodm:CDISCDefinition>
                    <nciodm:PreferredTerm>Hundred Billion Per Liter</nciodm:PreferredTerm>
                </EnumeratedItem>
                <EnumeratedItem CodedValue="10^12 IU/L" nciodm:ExtCodeID="C105518">
                    <nciodm:CDISCSynonym>TIU/L</nciodm:CDISCSynonym>
                    <nciodm:CDISCSynonym>Tera International Unit per Liter</nciodm:CDISCSynonym>
                    <nciodm:CDISCDefinition>Unit of arbitrary substance concentration (biologic activity concentration) defined as the concentration of 10^12 international unit per one liter of system volume.(NCI)</nciodm:CDISCDefinition>
                    <nciodm:PreferredTerm>Tera International Unit Per Liter</nciodm:PreferredTerm>
                </EnumeratedItem>
                <EnumeratedItem CodedValue="10^12/L" nciodm:ExtCodeID="C67308">
                    <nciodm:CDISCSynonym>1/pL</nciodm:CDISCSynonym>
                    <nciodm:CDISCSynonym>10^6/mm3</nciodm:CDISCSynonym>
                    <nciodm:CDISCSynonym>10^6/uL</nciodm:CDISCSynonym>
                    <nciodm:CDISCSynonym>T/L</nciodm:CDISCSynonym>
                    <nciodm:CDISCSynonym>TI/L</nciodm:CDISCSynonym>
                    <nciodm:CDISCSynonym>Tera/L</nciodm:CDISCSynonym>
                    <nciodm:CDISCDefinition>A unit of measurement equal to 10 to the twelfth power of the number of entities per unit of volume equal to one liter.</nciodm:CDISCDefinition>
                    <nciodm:PreferredTerm>Million per Microliter</nciodm:PreferredTerm>
                </EnumeratedItem>
                <EnumeratedItem CodedValue="10^3 CFU" nciodm:ExtCodeID="C68895">
                    <nciodm:CDISCSynonym>Thousand CFU</nciodm:CDISCSynonym>
                    <nciodm:CDISCSynonym>Thousand Colony Forming Units</nciodm:CDISCSynonym>
                    <nciodm:CDISCDefinition>A unit of measurement of viable bacterial numbers equal to 10 to the third power colony forming units.</nciodm:CDISCDefinition>
                    <nciodm:PreferredTerm>Thousand Colony Forming Units</nciodm:PreferredTerm>
                </EnumeratedItem>
                <EnumeratedItem CodedValue="10^3 CFU/g" nciodm:ExtCodeID="C68899">
                    <nciodm:CDISCSynonym>Thousand CFU/g</nciodm:CDISCSynonym>
                    <nciodm:CDISCSynonym>Thousand Colony Forming Units per Gram</nciodm:CDISCSynonym>
                    <nciodm:CDISCDefinition>A unit of measurement of viable bacterial organisms in a unit mass of substance of interest defined as the number of 10 to the third power colony forming units in one gram of substance.</nciodm:CDISCDefinition>
                    <nciodm:PreferredTerm>Thousand Colony Forming Units per Gram</nciodm:PreferredTerm>
                </EnumeratedItem>
                <EnumeratedItem CodedValue="10^3 CFU/mL" nciodm:ExtCodeID="C68903">
                    <nciodm:CDISCSynonym>Thousand CFU/mL</nciodm:CDISCSynonym>
                    <nciodm:CDISCSynonym>Thousand Colony Forming Units per Milliliter</nciodm:CDISCSynonym>
                    <nciodm:CDISCDefinition>A unit of measurement of viable bacterial organisms in a unit volume of substance of interest defined as the number of 10 to the third power colony forming units in one milliliter of substance.</nciodm:CDISCDefinition>
                    <nciodm:PreferredTerm>Thousand Colony Forming Units per Milliliter</nciodm:PreferredTerm>
                </EnumeratedItem>
                <EnumeratedItem CodedValue="10^3 copies/mL" nciodm:ExtCodeID="C100897">
                    <nciodm:CDISCDefinition>The unit of concentration expressed as the number of 10 to the third power copies in unit volume equal to one milliliter. (NCI)</nciodm:CDISCDefinition>
                    <nciodm:PreferredTerm>Thousand Copies per Milliliter</nciodm:PreferredTerm>
                </EnumeratedItem>
                <EnumeratedItem CodedValue="10^3 DNA copies/mL" nciodm:ExtCodeID="C98788">
                    <nciodm:CDISCDefinition>A unit of measurement equal to 10 to the third power of the number of deoxyribonucleic acid (DNA) copies per unit of volume equal to one milliliter.</nciodm:CDISCDefinition>
                    <nciodm:PreferredTerm>Thousand DNA Copies per Milliliter</nciodm:PreferredTerm>
                </EnumeratedItem>
                <EnumeratedItem CodedValue="10^3 organisms" nciodm:ExtCodeID="C71187">
                    <nciodm:CDISCSynonym>Thousand Organisms</nciodm:CDISCSynonym>
                    <nciodm:CDISCDefinition>A unit of measure of quantity of organisms expressed in 10 to the third power of organisms.</nciodm:CDISCDefinition>
                    <nciodm:PreferredTerm>Thousand Organisms</nciodm:PreferredTerm>
                </EnumeratedItem>
                <EnumeratedItem CodedValue="10^3 organisms/g" nciodm:ExtCodeID="C71190">
                    <nciodm:CDISCSynonym>Thousand Organisms per Gram</nciodm:CDISCSynonym>
                    <nciodm:CDISCSynonym>Thousand Organisms/g</nciodm:CDISCSynonym>
                    <nciodm:CDISCDefinition>A unit of measure of organism content expressed in 10 to the third power of organisms per unit of mass equal to one gram.</nciodm:CDISCDefinition>
                    <nciodm:PreferredTerm>Thousand Organisms per Gram</nciodm:PreferredTerm>
                </EnumeratedItem>
                <EnumeratedItem CodedValue="10^3 organisms/mL" nciodm:ExtCodeID="C71195">
                    <nciodm:CDISCSynonym>Thousand Organisms per Milliliter</nciodm:CDISCSynonym>
                    <nciodm:CDISCSynonym>Thousand Organisms/mL</nciodm:CDISCSynonym>
                    <nciodm:CDISCDefinition>A unit of measure of organism concentration expressed in 10 to the third power of organisms per unit of volume equal to one milliliter.</nciodm:CDISCDefinition>
                    <nciodm:PreferredTerm>Thousand Organisms per Milliliter</nciodm:PreferredTerm>
                </EnumeratedItem>
                <EnumeratedItem CodedValue="10^3 RNA copies/mL" nciodm:ExtCodeID="C98790">
                    <nciodm:CDISCDefinition>A unit of measurement equal to 10 to the third power of the number of ribonucleic acid (RNA) copies per unit of volume equal to one milliliter.</nciodm:CDISCDefinition>
                    <nciodm:PreferredTerm>Thousand RNA Copies per Milliliter</nciodm:PreferredTerm>
                </EnumeratedItem>
                <EnumeratedItem CodedValue="10^3/hpf" nciodm:ExtCodeID="C98789">
                    <nciodm:CDISCDefinition>A unit of measurement equal to 10 to the third power of the number of entities per unit of area equal to one high powered field.</nciodm:CDISCDefinition>
                    <nciodm:PreferredTerm>Thousand per High Powered Field</nciodm:PreferredTerm>
                </EnumeratedItem>
                <EnumeratedItem CodedValue="10^3/L" nciodm:ExtCodeID="C105519">
                    <nciodm:CDISCSynonym>1/mL</nciodm:CDISCSynonym>
                    <nciodm:CDISCDefinition>A unit of measurement equal to 10 to the third power of entities per unit of volume equal to one liter.</nciodm:CDISCDefinition>
                    <nciodm:PreferredTerm>Thousand Per Liter</nciodm:PreferredTerm>
                </EnumeratedItem>
                <EnumeratedItem CodedValue="10^4/hpf" nciodm:ExtCodeID="C98787">
                    <nciodm:CDISCDefinition>A unit of measurement equal to 10 to the fourth power of the number of entities per unit of area equal to one high powered field.</nciodm:CDISCDefinition>
                    <nciodm:PreferredTerm>Ten Thousand per High Powered Field</nciodm:PreferredTerm>
                </EnumeratedItem>
                <EnumeratedItem CodedValue="10^4/L" nciodm:ExtCodeID="C73771">
                    <nciodm:CDISCDefinition>A unit of measurement equal to 10 to the fourth power of entities per unit of volume equal to one liter.</nciodm:CDISCDefinition>
                    <nciodm:PreferredTerm>Thousand per Deciliter</nciodm:PreferredTerm>
                </EnumeratedItem>
                <EnumeratedItem CodedValue="10^5/hpf" nciodm:ExtCodeID="C98743">
                    <nciodm:CDISCDefinition>A unit of measurement equal to 10 to the fifth power of the number of entities per unit of area equal to one high powered field.</nciodm:CDISCDefinition>
                    <nciodm:PreferredTerm>Hundred Thousand per High Powered Field</nciodm:PreferredTerm>
                </EnumeratedItem>
                <EnumeratedItem CodedValue="10^5/L" nciodm:ExtCodeID="C105490">
                    <nciodm:CDISCSynonym>10^2/mL</nciodm:CDISCSynonym>
                    <nciodm:CDISCDefinition>A unit of measurement equal to 10 to the fifth power of entities per unit of volume equal to one liter.</nciodm:CDISCDefinition>
                    <nciodm:PreferredTerm>Hundred Thousand Per Liter</nciodm:PreferredTerm>
                </EnumeratedItem>
                <EnumeratedItem CodedValue="10^6 CFU" nciodm:ExtCodeID="C68896">
                    <nciodm:CDISCSynonym>Million CFU</nciodm:CDISCSynonym>
                    <nciodm:CDISCSynonym>Million Colony Forming Units</nciodm:CDISCSynonym>
                    <nciodm:CDISCDefinition>A unit of measurement of viable bacterial numbers equal to 10 to the sixth power colony forming units.</nciodm:CDISCDefinition>
                    <nciodm:PreferredTerm>Million Colony Forming Units</nciodm:PreferredTerm>
                </EnumeratedItem>
                <EnumeratedItem CodedValue="10^6 CFU/g" nciodm:ExtCodeID="C68900">
                    <nciodm:CDISCSynonym>Million CFU/g</nciodm:CDISCSynonym>
                    <nciodm:CDISCSynonym>Million Colony Forming Units per Gram</nciodm:CDISCSynonym>
                    <nciodm:CDISCDefinition>A unit of measurement of viable bacterial organisms in a unit mass of substance of interest defined as the number of 10 to the sixth power colony forming units in one gram of substance.</nciodm:CDISCDefinition>
                    <nciodm:PreferredTerm>Million Colony Forming Units per Gram</nciodm:PreferredTerm>
                </EnumeratedItem>
                <EnumeratedItem CodedValue="10^6 CFU/mL" nciodm:ExtCodeID="C68904">
                    <nciodm:CDISCSynonym>Million CFU/mL</nciodm:CDISCSynonym>
                    <nciodm:CDISCSynonym>Million Colony Forming Units per Milliliter</nciodm:CDISCSynonym>
                    <nciodm:CDISCDefinition>A unit of measurement of viable bacterial organisms in a unit volume of substance of interest defined as the number of 10 to the sixth power colony forming units in one milliliter of substance.</nciodm:CDISCDefinition>
                    <nciodm:PreferredTerm>Million Colony Forming Units per Milliliter</nciodm:PreferredTerm>
                </EnumeratedItem>
                <EnumeratedItem CodedValue="10^6 copies/mL" nciodm:ExtCodeID="C100898">
                    <nciodm:CDISCDefinition>The unit of concentration expressed as the number of 10 to the sixth power copies in unit volume equal to one milliliter. (NCI)</nciodm:CDISCDefinition>
                    <nciodm:PreferredTerm>Million Copies per Milliliter</nciodm:PreferredTerm>
                </EnumeratedItem>
                <EnumeratedItem CodedValue="10^6 DNA copies/mL" nciodm:ExtCodeID="C98756">
                    <nciodm:CDISCDefinition>A unit of measurement equal to 10 to the sixth power of the number of deoxyribonucleic acid (DNA) copies per unit of volume equal to one milliliter.</nciodm:CDISCDefinition>
                    <nciodm:PreferredTerm>Million DNA Copies per Milliliter</nciodm:PreferredTerm>
                </EnumeratedItem>
                <EnumeratedItem CodedValue="10^6 IU" nciodm:ExtCodeID="C67335">
                    <nciodm:CDISCSynonym>Million IU</nciodm:CDISCSynonym>
                    <nciodm:CDISCSynonym>Million International Units</nciodm:CDISCSynonym>
                    <nciodm:CDISCDefinition>A unit of biological activity equal to 10 to the sixth power international units.</nciodm:CDISCDefinition>
                    <nciodm:PreferredTerm>Million International Units</nciodm:PreferredTerm>
                </EnumeratedItem>
                <EnumeratedItem CodedValue="10^6 IU/mL" nciodm:ExtCodeID="C98757">
                    <nciodm:CDISCDefinition>A unit of measurement equal to 10 to the sixth power of the number of international units of an entity per unit of volume equal to one milliliter.</nciodm:CDISCDefinition>
                    <nciodm:PreferredTerm>Million International Units per Milliliter</nciodm:PreferredTerm>
                </EnumeratedItem>
                <EnumeratedItem CodedValue="10^6 organisms" nciodm:ExtCodeID="C71188">
                    <nciodm:CDISCSynonym>Million Organisms</nciodm:CDISCSynonym>
                    <nciodm:CDISCDefinition>A unit of measure of quantity of organisms expressed in 10 to the sixth power of organisms.</nciodm:CDISCDefinition>
                    <nciodm:PreferredTerm>Million Organisms</nciodm:PreferredTerm>
                </EnumeratedItem>
                <EnumeratedItem CodedValue="10^6 organisms/g" nciodm:ExtCodeID="C71191">
                    <nciodm:CDISCSynonym>Million Organisms per Gram</nciodm:CDISCSynonym>
                    <nciodm:CDISCSynonym>Million Organisms/g</nciodm:CDISCSynonym>
                    <nciodm:CDISCDefinition>A unit of measure of organism content expressed in 10 to the sixth power of organisms per unit of mass equal to one gram.</nciodm:CDISCDefinition>
                    <nciodm:PreferredTerm>Million Organisms per Gram</nciodm:PreferredTerm>
                </EnumeratedItem>
                <EnumeratedItem CodedValue="10^6 organisms/mg" nciodm:ExtCodeID="C71193">
                    <nciodm:CDISCSynonym>Million Organisms per Milligram</nciodm:CDISCSynonym>
                    <nciodm:CDISCSynonym>Million Organisms/mg</nciodm:CDISCSynonym>
                    <nciodm:CDISCDefinition>A unit of measure of organism content expressed in 10 to the sixth power of organisms per unit of mass equal to one milligram.</nciodm:CDISCDefinition>
                    <nciodm:PreferredTerm>Million Organisms per Milligram</nciodm:PreferredTerm>
                </EnumeratedItem>
                <EnumeratedItem CodedValue="10^6 organisms/mL" nciodm:ExtCodeID="C71196">
                    <nciodm:CDISCSynonym>Million Organisms per Milliliter</nciodm:CDISCSynonym>
                    <nciodm:CDISCSynonym>Million Organisms/mL</nciodm:CDISCSynonym>
                    <nciodm:CDISCDefinition>A unit of measure of organism concentration expressed in 10 to the sixth power of organisms per unit of volume equal to one milliliter.</nciodm:CDISCDefinition>
                    <nciodm:PreferredTerm>Million Organisms per Milliliter</nciodm:PreferredTerm>
                </EnumeratedItem>
                <EnumeratedItem CodedValue="10^6 RNA copies/mL" nciodm:ExtCodeID="C98760">
                    <nciodm:CDISCDefinition>A unit of measurement equal to 10 to the sixth power of the number of ribonucleic acid (RNA) copies per unit of volume equal to one milliliter.</nciodm:CDISCDefinition>
                    <nciodm:PreferredTerm>Million RNA Copies per Milliliter</nciodm:PreferredTerm>
                </EnumeratedItem>
                <EnumeratedItem CodedValue="10^6/g" nciodm:ExtCodeID="C98758">
                    <nciodm:CDISCDefinition>A unit of measurement equal to 10 to the sixth power of the number of entities per unit of mass equal to one gram.</nciodm:CDISCDefinition>
                    <nciodm:PreferredTerm>Million per Gram</nciodm:PreferredTerm>
                </EnumeratedItem>
                <EnumeratedItem CodedValue="10^6/hpf" nciodm:ExtCodeID="C98759">
                    <nciodm:CDISCDefinition>A unit of measurement equal to 10 to the sixth power of the number of entities per unit of area equal to one high powered field.</nciodm:CDISCDefinition>
                    <nciodm:PreferredTerm>Million per High Powered Field</nciodm:PreferredTerm>
                </EnumeratedItem>
                <EnumeratedItem CodedValue="10^6/L" nciodm:ExtCodeID="C67452">
                    <nciodm:CDISCSynonym>1/mm3</nciodm:CDISCSynonym>
                    <nciodm:CDISCSynonym>1/uL</nciodm:CDISCSynonym>
                    <nciodm:CDISCSynonym>10^3/mL</nciodm:CDISCSynonym>
                    <nciodm:CDISCSynonym>M/L</nciodm:CDISCSynonym>
                    <nciodm:CDISCSynonym>Mega/L</nciodm:CDISCSynonym>
                    <nciodm:CDISCDefinition>A unit of measurement equal to 10 to the sixth power of the number of entities per unit of volume equal to one liter.</nciodm:CDISCDefinition>
                    <nciodm:PreferredTerm>Thousand per Milliliter</nciodm:PreferredTerm>
                </EnumeratedItem>
                <EnumeratedItem CodedValue="10^7/L" nciodm:ExtCodeID="C98786">
                    <nciodm:CDISCSynonym>10^6/dL</nciodm:CDISCSynonym>
                    <nciodm:CDISCDefinition>A unit of measurement equal to 10 to the seventh power of the number of entities per unit of volume equal to one liter.</nciodm:CDISCDefinition>
                    <nciodm:PreferredTerm>Ten Million per Liter</nciodm:PreferredTerm>
                </EnumeratedItem>
                <EnumeratedItem CodedValue="10^8/L" nciodm:ExtCodeID="C105489">
                    <nciodm:CDISCSynonym>10^2/mm3</nciodm:CDISCSynonym>
                    <nciodm:CDISCSynonym>10^2/uL</nciodm:CDISCSynonym>
                    <nciodm:CDISCSynonym>10^5/mL</nciodm:CDISCSynonym>
                    <nciodm:CDISCDefinition>A unit of measurement equal to 10 to the eighth power of entities per unit of volume equal to one liter.</nciodm:CDISCDefinition>
                    <nciodm:PreferredTerm>Hundred Million Per Liter</nciodm:PreferredTerm>
                </EnumeratedItem>
                <EnumeratedItem CodedValue="10^9 CFU" nciodm:ExtCodeID="C68897">
                    <nciodm:CDISCSynonym>Billion CFU</nciodm:CDISCSynonym>
                    <nciodm:CDISCSynonym>Billion Colony Forming Units</nciodm:CDISCSynonym>
                    <nciodm:CDISCDefinition>A unit of measurement of viable bacterial numbers equal to 10 to the ninth power colony forming units.</nciodm:CDISCDefinition>
                    <nciodm:PreferredTerm>Billion Colony Forming Units</nciodm:PreferredTerm>
                </EnumeratedItem>
                <EnumeratedItem CodedValue="10^9 CFU/g" nciodm:ExtCodeID="C68901">
                    <nciodm:CDISCSynonym>Billion CFU/g</nciodm:CDISCSynonym>
                    <nciodm:CDISCSynonym>Billion Colony Forming Units per Gram</nciodm:CDISCSynonym>
                    <nciodm:CDISCDefinition>A unit of measurement of viable bacterial organisms in a unit mass of substance of interest defined as the number of 10 to the ninth power colony forming units in one gram of substance.</nciodm:CDISCDefinition>
                    <nciodm:PreferredTerm>Billion Colony Forming Units per Gram</nciodm:PreferredTerm>
                </EnumeratedItem>
                <EnumeratedItem CodedValue="10^9 CFU/mL" nciodm:ExtCodeID="C68905">
                    <nciodm:CDISCSynonym>Billion CFU/mL</nciodm:CDISCSynonym>
                    <nciodm:CDISCSynonym>Billion Colony Forming Units per Milliliter</nciodm:CDISCSynonym>
                    <nciodm:CDISCDefinition>A unit of measurement of viable bacterial organisms in a unit volume of substance of interest defined as the number of 10 to the ninth power colony forming units in one milliliter of substance.</nciodm:CDISCDefinition>
                    <nciodm:PreferredTerm>Billion Colony Forming Units per Milliliter</nciodm:PreferredTerm>
                </EnumeratedItem>
                <EnumeratedItem CodedValue="10^9 organisms" nciodm:ExtCodeID="C71189">
                    <nciodm:CDISCSynonym>Billion Organisms</nciodm:CDISCSynonym>
                    <nciodm:CDISCDefinition>A unit of measure of quantity of organisms expressed in 10 to the ninth power of organisms.</nciodm:CDISCDefinition>
                    <nciodm:PreferredTerm>Billion Organisms</nciodm:PreferredTerm>
                </EnumeratedItem>
                <EnumeratedItem CodedValue="10^9 organisms/g" nciodm:ExtCodeID="C71192">
                    <nciodm:CDISCSynonym>Billion Organisms per Gram</nciodm:CDISCSynonym>
                    <nciodm:CDISCSynonym>Billion Organisms/g</nciodm:CDISCSynonym>
                    <nciodm:CDISCDefinition>A unit of measure of organism content expressed in 10 to the ninth power of organisms per unit of mass equal to one gram.</nciodm:CDISCDefinition>
                    <nciodm:PreferredTerm>Billion Organisms per Gram</nciodm:PreferredTerm>
                </EnumeratedItem>
                <EnumeratedItem CodedValue="10^9 organisms/mg" nciodm:ExtCodeID="C71194">
                    <nciodm:CDISCSynonym>Billion Organisms per Milligram</nciodm:CDISCSynonym>
                    <nciodm:CDISCSynonym>Billion Organisms/mg</nciodm:CDISCSynonym>
                    <nciodm:CDISCDefinition>A unit of measure of organism content expressed in 10 to the ninth power of organisms per unit of mass equal to one milligram.</nciodm:CDISCDefinition>
                    <nciodm:PreferredTerm>Billion Organisms per Milligram</nciodm:PreferredTerm>
                </EnumeratedItem>
                <EnumeratedItem CodedValue="10^9 organisms/mL" nciodm:ExtCodeID="C71197">
                    <nciodm:CDISCSynonym>Billion Organisms per Milliliter</nciodm:CDISCSynonym>
                    <nciodm:CDISCSynonym>Billion Organisms/mL</nciodm:CDISCSynonym>
                    <nciodm:CDISCDefinition>A unit of measure of organism concentration expressed in 10 to the ninth power of organisms per unit of volume equal to one milliliter.</nciodm:CDISCDefinition>
                    <nciodm:PreferredTerm>Billion Organisms per Milliliter</nciodm:PreferredTerm>
                </EnumeratedItem>
                <EnumeratedItem CodedValue="10^9/g" nciodm:ExtCodeID="C122200">
                    <nciodm:CDISCSynonym>10^12/kg</nciodm:CDISCSynonym>
                    <nciodm:CDISCSynonym>10^3/ug</nciodm:CDISCSynonym>
                    <nciodm:CDISCSynonym>10^6/mg</nciodm:CDISCSynonym>
                    <nciodm:CDISCDefinition>A unit of measurement equal to 10 to the ninth power of the number of entities per unit of mass equal to one gram.</nciodm:CDISCDefinition>
                    <nciodm:PreferredTerm>Billion per Gram</nciodm:PreferredTerm>
                </EnumeratedItem>
                <EnumeratedItem CodedValue="10^9/L" nciodm:ExtCodeID="C67255">
                    <nciodm:CDISCSynonym>1/nL</nciodm:CDISCSynonym>
                    <nciodm:CDISCSynonym>10^3/mm3</nciodm:CDISCSynonym>
                    <nciodm:CDISCSynonym>10^3/uL</nciodm:CDISCSynonym>
                    <nciodm:CDISCSynonym>10^6/mL</nciodm:CDISCSynonym>
                    <nciodm:CDISCSynonym>G/L</nciodm:CDISCSynonym>
                    <nciodm:CDISCSynonym>GI/L</nciodm:CDISCSynonym>
                    <nciodm:CDISCSynonym>Giga per Liter</nciodm:CDISCSynonym>
                    <nciodm:CDISCDefinition>A unit of measurement equal to 10 to the ninth power of the number of entities per unit of volume equal to one liter.</nciodm:CDISCDefinition>
                    <nciodm:PreferredTerm>Billion per Liter</nciodm:PreferredTerm>
                </EnumeratedItem>
                <EnumeratedItem CodedValue="Absorbance U" nciodm:ExtCodeID="C73686">
                    <nciodm:CDISCSynonym>Absorbance Unit</nciodm:CDISCSynonym>
                    <nciodm:CDISCDefinition>A unit of optical density expressed as a logarithm of absorbance of light transmitted through a partially absorbing substance.</nciodm:CDISCDefinition>
                    <nciodm:PreferredTerm>Absorbance Unit</nciodm:PreferredTerm>
                </EnumeratedItem>
                <EnumeratedItem CodedValue="Absorbance U/min" nciodm:ExtCodeID="C73687">
                    <nciodm:CDISCSynonym>Absorbance Unit per Minute</nciodm:CDISCSynonym>
                    <nciodm:CDISCDefinition>A unit of a speed of optical density change expressed as a logarithm of absorbance of light transmitted through a partially absorbing substance per minute. (NCI)</nciodm:CDISCDefinition>
                    <nciodm:PreferredTerm>Absorbance Unit per Minute</nciodm:PreferredTerm>
                </EnumeratedItem>
                <EnumeratedItem CodedValue="Absorbance U/mL" nciodm:ExtCodeID="C126078">
                    <nciodm:CDISCDefinition>A unit of optical density expressed as a logarithm of absorbance of light transmitted through a partially absorbing substance per unit of volume equal to one milliliter.</nciodm:CDISCDefinition>
                    <nciodm:PreferredTerm>Absorbance Unit per Milliliter</nciodm:PreferredTerm>
                </EnumeratedItem>
                <EnumeratedItem CodedValue="AFU" nciodm:ExtCodeID="C77534">
                    <nciodm:CDISCSynonym>Arbitrary Fluorescence Unit</nciodm:CDISCSynonym>
                    <nciodm:CDISCDefinition>Arbitrary unit(s) of fluorescent luminescence. (NCI)</nciodm:CDISCDefinition>
                    <nciodm:PreferredTerm>Arbitrary Fluorescence Units</nciodm:PreferredTerm>
                </EnumeratedItem>
                <EnumeratedItem CodedValue="ag" nciodm:ExtCodeID="C64553">
                    <nciodm:CDISCSynonym>Attogram</nciodm:CDISCSynonym>
                    <nciodm:CDISCDefinition>A unit of mass equal to one quintillionth of a gram (10E-18 gram).(NCI)</nciodm:CDISCDefinition>
                    <nciodm:PreferredTerm>Attogram</nciodm:PreferredTerm>
                </EnumeratedItem>
                <EnumeratedItem CodedValue="AgU/mL" nciodm:ExtCodeID="C70500">
                    <nciodm:CDISCSynonym>Antigen Unit per Milliliter</nciodm:CDISCSynonym>
                    <nciodm:CDISCDefinition>A measure of an antigen potency defined as a number of antigen units per one milliliter of product.(NCI)</nciodm:CDISCDefinition>
                    <nciodm:PreferredTerm>Antigen Unit per Milliliter</nciodm:PreferredTerm>
                </EnumeratedItem>
                <EnumeratedItem CodedValue="amol" nciodm:ExtCodeID="C68855">
                    <nciodm:CDISCSynonym>Attomole</nciodm:CDISCSynonym>
                    <nciodm:CDISCDefinition>A unit of amount of substance equal to one quintillionth of a mole (10E-18 mole).(NCI)</nciodm:CDISCDefinition>
                    <nciodm:PreferredTerm>Attomole</nciodm:PreferredTerm>
                </EnumeratedItem>
                <EnumeratedItem CodedValue="amp" nciodm:ExtCodeID="C42536">
                    <nciodm:CDISCSynonym>Ampere</nciodm:CDISCSynonym>
                    <nciodm:CDISCDefinition>A unit of electric current, named after the French physicist Andre Ampere. It is that constant current which, if maintained in two straight parallel conductors of infinite length and zero diameter separated by one meter in a vacuum, would produce between these conductors a force equal to 2(10E7) Newton per meter of length. This is dependent upon the definitions of the meter, kilogram, and second. One Ampere represents 6.24 x 10(E18) unit electric charge carriers, such as electrons, passing a specified fixed point in one second.(NCI)</nciodm:CDISCDefinition>
                    <nciodm:PreferredTerm>Ampere</nciodm:PreferredTerm>
                </EnumeratedItem>
                <EnumeratedItem CodedValue="AMPULE" nciodm:ExtCodeID="C48473">
                    <nciodm:CDISCSynonym>Ampule Dosing Unit</nciodm:CDISCSynonym>
                    <nciodm:CDISCDefinition>A dosing measurement based on the ampule unit.(NCI)</nciodm:CDISCDefinition>
                    <nciodm:PreferredTerm>Ampule Dosing Unit</nciodm:PreferredTerm>
                </EnumeratedItem>
                <EnumeratedItem CodedValue="amu" nciodm:ExtCodeID="C64559">
                    <nciodm:CDISCSynonym>Atomic Mass Unit</nciodm:CDISCSynonym>
                    <nciodm:CDISCDefinition>A small unit of mass used to express atomic and molecular masses. (NCI)</nciodm:CDISCDefinition>
                    <nciodm:PreferredTerm>Atomic Mass Unit</nciodm:PreferredTerm>
                </EnumeratedItem>
                <EnumeratedItem CodedValue="Anson U" nciodm:ExtCodeID="C122201">
                    <nciodm:CDISCDefinition>A unit of enzyme concentration which is defined as the amount of enzyme that can digest urea-denatured hemoglobin at the same initial rate as one milliequivalent of tyrosine at standard conditions.</nciodm:CDISCDefinition>
                    <nciodm:PreferredTerm>Anson Unit</nciodm:PreferredTerm>
                </EnumeratedItem>
                <EnumeratedItem CodedValue="anti-Xa IU" nciodm:ExtCodeID="C70497">
                    <nciodm:CDISCSynonym>Anti-Xa Activity International Unit</nciodm:CDISCSynonym>
                    <nciodm:CDISCDefinition>A unit of unfractionated or low molecular weight heparin anticoagulation potency determined as the amount that neutralizes one unit of coagulation factor Xa preparation defined as an international biological standard by WHO (World Health Organization) First International Low Molecular Weight Heparin Reference Standard.(NCI)</nciodm:CDISCDefinition>
                    <nciodm:PreferredTerm>Anti-Xa Activity International Unit</nciodm:PreferredTerm>
                </EnumeratedItem>
                <EnumeratedItem CodedValue="anti-Xa IU/mL" nciodm:ExtCodeID="C70498">
                    <nciodm:CDISCSynonym>Anti-Xa Activity International Unit per Milliliter</nciodm:CDISCSynonym>
                    <nciodm:CDISCDefinition>A specific anticoagulation activity of unfractionated or low molecular weight heparin on factor Xa, expressed as a number of international anti-Xa heparin units per one milliliter of plasma.(NCI)</nciodm:CDISCDefinition>
                    <nciodm:PreferredTerm>Anti-Xa Activity International Unit per Milliliter</nciodm:PreferredTerm>
                </EnumeratedItem>
                <EnumeratedItem CodedValue="Antibody Unit" nciodm:ExtCodeID="C111129">
                    <nciodm:CDISCDefinition>A unit of antibody concentration measured by comparison against a known concentration of antibodies in a standard reference specimen.</nciodm:CDISCDefinition>
                    <nciodm:PreferredTerm>Antibody Unit</nciodm:PreferredTerm>
                </EnumeratedItem>
                <EnumeratedItem CodedValue="APL U" nciodm:ExtCodeID="C122202">
                    <nciodm:CDISCSynonym>Immunoglobin A Phospholipid Units</nciodm:CDISCSynonym>
                    <nciodm:CDISCSynonym>[APL'U]</nciodm:CDISCSynonym>
                    <nciodm:CDISCDefinition>A unit for semiquantitative measurement of IgA autoantibodies to proteins associated with negatively charged phospholipids evaluated against an established reference standard.</nciodm:CDISCDefinition>
                    <nciodm:PreferredTerm>IgA Phospholipid Unit</nciodm:PreferredTerm>
                </EnumeratedItem>
                <EnumeratedItem CodedValue="APL U/mL" nciodm:ExtCodeID="C117965">
                    <nciodm:CDISCSynonym>Immunoglobin A Phospholipid Units per Milliliter</nciodm:CDISCSynonym>
                    <nciodm:CDISCDefinition>A unit for semiquantitative measurement of IgA autoantibodies to proteins associated with negatively charged phospholipids evaluated against an established reference standard, per unit of volume equal to one milliliter.</nciodm:CDISCDefinition>
                    <nciodm:PreferredTerm>Immunoglobin A Phospholipid Unit per Milliliter</nciodm:PreferredTerm>
                </EnumeratedItem>
                <EnumeratedItem CodedValue="APPLICATION" nciodm:ExtCodeID="C25397">
                    <nciodm:CDISCSynonym>Application Dosing Unit</nciodm:CDISCSynonym>
                    <nciodm:CDISCDefinition>A dosing measurement based on the amount of substance applied.</nciodm:CDISCDefinition>
                    <nciodm:PreferredTerm>Application Unit</nciodm:PreferredTerm>
                </EnumeratedItem>
                <EnumeratedItem CodedValue="atm" nciodm:ExtCodeID="C54711">
                    <nciodm:CDISCSynonym>Atmosphere</nciodm:CDISCSynonym>
                    <nciodm:CDISCDefinition>A unit of pressure, equal to a barometer reading of 760 mm Hg. 1 atmosphere is 101325 Pascals and 1.01325 bar. This unit of pressure is roughly equal to the average atmospheric pressure at sea level on the earth.(NCI)</nciodm:CDISCDefinition>
                    <nciodm:PreferredTerm>Atmosphere</nciodm:PreferredTerm>
                </EnumeratedItem>
                <EnumeratedItem CodedValue="AU/mL" nciodm:ExtCodeID="C70504">
                    <nciodm:CDISCSynonym>Allergy Unit per Milliliter</nciodm:CDISCSynonym>
                    <nciodm:CDISCDefinition>Unit of measure of potency of allergenic product expressed as a number of allergy units per one milliliter of formulation.(NCI)</nciodm:CDISCDefinition>
                    <nciodm:PreferredTerm>Allergy Unit per Milliliter</nciodm:PreferredTerm>
                </EnumeratedItem>
                <EnumeratedItem CodedValue="BAG" nciodm:ExtCodeID="C48474">
                    <nciodm:CDISCSynonym>Bag Dosing Unit</nciodm:CDISCSynonym>
                    <nciodm:CDISCDefinition>A dosing measurement based on the bag unit.(NCI)</nciodm:CDISCDefinition>
                    <nciodm:PreferredTerm>Bag Dosing Unit</nciodm:PreferredTerm>
                </EnumeratedItem>
                <EnumeratedItem CodedValue="BAR" nciodm:ExtCodeID="C48475">
                    <nciodm:CDISCSynonym>Bar Dosing Unit</nciodm:CDISCSynonym>
                    <nciodm:CDISCDefinition>A dosing measurement based on the bar unit.(NCI)</nciodm:CDISCDefinition>
                    <nciodm:PreferredTerm>Bar Dosing Unit</nciodm:PreferredTerm>
                </EnumeratedItem>
                <EnumeratedItem CodedValue="BAU" nciodm:ExtCodeID="C70505">
                    <nciodm:CDISCSynonym>Bioequivalent Allergy Unit</nciodm:CDISCSynonym>
                    <nciodm:CDISCDefinition>A unit used for standardization of an allergenic product based on evaluation of product potency against reference standard in combined in vivo (skin test) and in vitro (IgE-based ELISA) testing.(NCI)</nciodm:CDISCDefinition>
                    <nciodm:PreferredTerm>Bioequivalent Allergy Unit</nciodm:PreferredTerm>
                </EnumeratedItem>
                <EnumeratedItem CodedValue="BAU/mL" nciodm:ExtCodeID="C116235">
                    <nciodm:CDISCSynonym>Bioequivalent Allergy Unit per Milliliter</nciodm:CDISCSynonym>
                    <nciodm:CDISCDefinition>Unit of measure of potency of allergenic product expressed as a number of bioequivalent allergy units per one milliliter of formulation.</nciodm:CDISCDefinition>
                    <nciodm:PreferredTerm>Bioequivalent Allergy Unit per Milliliter</nciodm:PreferredTerm>
                </EnumeratedItem>
                <EnumeratedItem CodedValue="BE/mL" nciodm:ExtCodeID="C116231">
                    <nciodm:CDISCSynonym>Biological Unit per Milliliter</nciodm:CDISCSynonym>
                    <nciodm:CDISCDefinition>Unit of measure of potency of allergenic product expressed as a number of biological units per one milliliter of formulation.</nciodm:CDISCDefinition>
                    <nciodm:PreferredTerm>Biological Allergy Unit per Milliliter</nciodm:PreferredTerm>
                </EnumeratedItem>
                <EnumeratedItem CodedValue="BEAM BREAKS" nciodm:ExtCodeID="C129002">
                    <nciodm:CDISCDefinition>The unit of measure for the number of times in which light paths are interrupted by movement.</nciodm:CDISCDefinition>
                    <nciodm:PreferredTerm>Beam Break Unit</nciodm:PreferredTerm>
                </EnumeratedItem>
                <EnumeratedItem CodedValue="beats/min" nciodm:ExtCodeID="C49673">
                    <nciodm:CDISCSynonym>Beats per Minute</nciodm:CDISCSynonym>
                    <nciodm:CDISCDefinition>The number of heartbeats measured per minute time. (NCI)</nciodm:CDISCDefinition>
                    <nciodm:PreferredTerm>Beats per Minute</nciodm:PreferredTerm>
                </EnumeratedItem>
                <EnumeratedItem CodedValue="bel" nciodm:ExtCodeID="C71200">
                    <nciodm:CDISCSynonym>Bel</nciodm:CDISCSynonym>
                    <nciodm:CDISCDefinition>A logarithmic ratio unit (base-10 logarithms) used to express relative magnitude of a physical quantity (usually power or intensity) in comparison with a specified or implied reference level. Particularly, Bel is used as a unit of relative sound intensity. In the latter context it is equal to ten decibels or to approximately 1.151293 nepers.(NCI)</nciodm:CDISCDefinition>
                    <nciodm:PreferredTerm>Bel</nciodm:PreferredTerm>
                </EnumeratedItem>
                <EnumeratedItem CodedValue="BISCUIT" nciodm:ExtCodeID="C111139">
                    <nciodm:CDISCSynonym>Biscuit Dosing Unit</nciodm:CDISCSynonym>
                    <nciodm:CDISCDefinition>A measurement based on the biscuit unit.</nciodm:CDISCDefinition>
                    <nciodm:PreferredTerm>Biscuit Dosing Unit</nciodm:PreferredTerm>
                </EnumeratedItem>
                <EnumeratedItem CodedValue="BLOCKS" nciodm:ExtCodeID="C111140">
                    <nciodm:CDISCDefinition>A unit of measure to quantify the number of rectangular areas in a city surrounded by streets.</nciodm:CDISCDefinition>
                    <nciodm:PreferredTerm>Block Unit of Distance</nciodm:PreferredTerm>
                </EnumeratedItem>
                <EnumeratedItem CodedValue="BOLUS" nciodm:ExtCodeID="C48476">
                    <nciodm:CDISCSynonym>Bolus Dosing Unit</nciodm:CDISCSynonym>
                    <nciodm:CDISCDefinition>A dosing measurement based on the bolus unit.(NCI)</nciodm:CDISCDefinition>
                    <nciodm:PreferredTerm>Bolus Dosing Unit</nciodm:PreferredTerm>
                </EnumeratedItem>
                <EnumeratedItem CodedValue="BOTTLE" nciodm:ExtCodeID="C48477">
                    <nciodm:CDISCSynonym>Bottle Dosing Unit</nciodm:CDISCSynonym>
                    <nciodm:CDISCDefinition>A dosing measurement based on the bottle unit.(NCI)</nciodm:CDISCDefinition>
                    <nciodm:PreferredTerm>Bottle Dosing Unit</nciodm:PreferredTerm>
                </EnumeratedItem>
                <EnumeratedItem CodedValue="BOX" nciodm:ExtCodeID="C48478">
                    <nciodm:CDISCSynonym>Box Dosing Unit</nciodm:CDISCSynonym>
                    <nciodm:CDISCDefinition>A dosing measurement based on the box unit.(NCI)</nciodm:CDISCDefinition>
                    <nciodm:PreferredTerm>Box Dosing Unit</nciodm:PreferredTerm>
                </EnumeratedItem>
                <EnumeratedItem CodedValue="Bq" nciodm:ExtCodeID="C42562">
                    <nciodm:CDISCSynonym>Becquerel</nciodm:CDISCSynonym>
                    <nciodm:CDISCDefinition>A unit of activity of a radionuclide, equal to one nuclear disintegration or other nuclear transition from a particular energy state occurring in an amount of a radionuclide during one second-long time interval.(NCI)</nciodm:CDISCDefinition>
                    <nciodm:PreferredTerm>Becquerel</nciodm:PreferredTerm>
                </EnumeratedItem>
                <EnumeratedItem CodedValue="Bq/g" nciodm:ExtCodeID="C70522">
                    <nciodm:CDISCSynonym>Becquerel per Gram</nciodm:CDISCSynonym>
                    <nciodm:CDISCDefinition>A unit of specific radioactivity (massic activity) equal to activity of one Becquerel of the sample with total mass of one gram.(NCI)</nciodm:CDISCDefinition>
                    <nciodm:PreferredTerm>Becquerel per Gram</nciodm:PreferredTerm>
                </EnumeratedItem>
                <EnumeratedItem CodedValue="Bq/kg" nciodm:ExtCodeID="C70521">
                    <nciodm:CDISCSynonym>Becquerel per Kilogram</nciodm:CDISCSynonym>
                    <nciodm:CDISCDefinition>A unit of specific radioactivity (massic activity) equal to activity of one Becquerel of the sample with total mass of one kilogram.(NCI)</nciodm:CDISCDefinition>
                    <nciodm:PreferredTerm>Becquerel per Kilogram</nciodm:PreferredTerm>
                </EnumeratedItem>
                <EnumeratedItem CodedValue="Bq/L" nciodm:ExtCodeID="C71165">
                    <nciodm:CDISCSynonym>Becquerel per Liter</nciodm:CDISCSynonym>
                    <nciodm:CDISCDefinition>A unit of volumetric radioactivity concentration defined as a concentration of a radionuclide with an activity equal to one Becquerel per unit volume equal to one liter.(NCI)</nciodm:CDISCDefinition>
                    <nciodm:PreferredTerm>Becquerel per Liter</nciodm:PreferredTerm>
                </EnumeratedItem>
                <EnumeratedItem CodedValue="Bq/mg" nciodm:ExtCodeID="C70524">
                    <nciodm:CDISCSynonym>Becquerel per Milligram</nciodm:CDISCSynonym>
                    <nciodm:CDISCSynonym>Kilobecquerel per Gram</nciodm:CDISCSynonym>
                    <nciodm:CDISCSynonym>kBq/g</nciodm:CDISCSynonym>
                    <nciodm:CDISCDefinition>A unit of specific radioactivity (massic activity) equal to activity of one Becquerel of the sample with total mass of one milligram.(NCI)</nciodm:CDISCDefinition>
                    <nciodm:PreferredTerm>Becquerel per Milligram</nciodm:PreferredTerm>
                </EnumeratedItem>
                <EnumeratedItem CodedValue="Bq/mL" nciodm:ExtCodeID="C71167">
                    <nciodm:CDISCSynonym>Becquerel per Milliliter</nciodm:CDISCSynonym>
                    <nciodm:CDISCSynonym>Kilobecquerel per Liter</nciodm:CDISCSynonym>
                    <nciodm:CDISCSynonym>kBq/L</nciodm:CDISCSynonym>
                    <nciodm:CDISCDefinition>A unit of volumetric radioactivity concentration defined as a concentration of a radionuclide with an activity equal to one Becquerel per unit volume equal to one milliliter or one kilobecquerel per liter.(NCI)</nciodm:CDISCDefinition>
                    <nciodm:PreferredTerm>Becquerel per Milliliter</nciodm:PreferredTerm>
                </EnumeratedItem>
                <EnumeratedItem CodedValue="Bq/ug" nciodm:ExtCodeID="C70523">
                    <nciodm:CDISCSynonym>Becquerel per Microgram</nciodm:CDISCSynonym>
                    <nciodm:CDISCSynonym>Bq/mcg</nciodm:CDISCSynonym>
                    <nciodm:CDISCSynonym>Kilobecquerel per Milligram</nciodm:CDISCSynonym>
                    <nciodm:CDISCSynonym>MBq/g</nciodm:CDISCSynonym>
                    <nciodm:CDISCSynonym>Megabecquerel per Gram</nciodm:CDISCSynonym>
                    <nciodm:CDISCSynonym>kBq/mg</nciodm:CDISCSynonym>
                    <nciodm:CDISCDefinition>A unit of specific radioactivity (massic activity) equal to activity of one Becquerel of the sample with total mass of one microgram.(NCI)</nciodm:CDISCDefinition>
                    <nciodm:PreferredTerm>Becquerel per Microgram</nciodm:PreferredTerm>
                </EnumeratedItem>
                <EnumeratedItem CodedValue="Bq/uL" nciodm:ExtCodeID="C71166">
                    <nciodm:CDISCSynonym>Becquerel per Microliter</nciodm:CDISCSynonym>
                    <nciodm:CDISCSynonym>Kilobecquerel per Milliliter</nciodm:CDISCSynonym>
                    <nciodm:CDISCSynonym>MBq/L</nciodm:CDISCSynonym>
                    <nciodm:CDISCSynonym>Megabecquerel per Liter</nciodm:CDISCSynonym>
                    <nciodm:CDISCSynonym>kBq/mL</nciodm:CDISCSynonym>
                    <nciodm:CDISCDefinition>A unit of volumetric radioactivity concentration defined as a concentration of a radionuclide with an activity equal to one Becquerel per unit volume equal to one millionth of a liter.(NCI)</nciodm:CDISCDefinition>
                    <nciodm:PreferredTerm>Becquerel per Microliter</nciodm:PreferredTerm>
                </EnumeratedItem>
                <EnumeratedItem CodedValue="breaths/min" nciodm:ExtCodeID="C49674">
                    <nciodm:CDISCSynonym>Breaths per Minute</nciodm:CDISCSynonym>
                    <nciodm:CDISCDefinition>The number of breaths (inhalation and exhalation) taken per minute time. (NCI)</nciodm:CDISCDefinition>
                    <nciodm:PreferredTerm>Breaths per Minute</nciodm:PreferredTerm>
                </EnumeratedItem>
                <EnumeratedItem CodedValue="BU" nciodm:ExtCodeID="C117966">
                    <nciodm:CDISCSynonym>Bethesda Unit</nciodm:CDISCSynonym>
                    <nciodm:CDISCDefinition>A unit of measurement for blood coagulation inhibitor activity, expressed in the amount of an inhibitor neutralizing 50% of a coagulant during the incubation period.</nciodm:CDISCDefinition>
                    <nciodm:PreferredTerm>Bethesda Unit</nciodm:PreferredTerm>
                </EnumeratedItem>
                <EnumeratedItem CodedValue="BU/mL" nciodm:ExtCodeID="C117967">
                    <nciodm:CDISCSynonym>Bethesda Unit per Milliliter</nciodm:CDISCSynonym>
                    <nciodm:CDISCDefinition>A unit of measurement for blood coagulation inhibitor activity, expressed as a Bethesda Unit per unit of volume equal to one milliliter. (NCI)</nciodm:CDISCDefinition>
                    <nciodm:PreferredTerm>Bethesda Unit per Milliliter</nciodm:PreferredTerm>
                </EnumeratedItem>
                <EnumeratedItem CodedValue="C" nciodm:ExtCodeID="C42559">
                    <nciodm:CDISCSynonym>Degree Celsius</nciodm:CDISCSynonym>
                    <nciodm:CDISCDefinition>A unit of temperature of the temperature scale designed so that the freezing point of water is 0 degrees and the boiling point is 100 degrees at standard atmospheric pressure. The current official definition of the Celsius sets 0.01 C to be at the triple point of water and a degree to be 1/273.16 of the difference in temperature between the triple point of water and absolute zero. One degree Celsius represents the same temperature difference as one Kelvin. (NCI)</nciodm:CDISCDefinition>
                    <nciodm:PreferredTerm>Degree Celsius</nciodm:PreferredTerm>
                </EnumeratedItem>
                <EnumeratedItem CodedValue="cal" nciodm:ExtCodeID="C67193">
                    <nciodm:CDISCSynonym>Calorie</nciodm:CDISCSynonym>
                    <nciodm:CDISCDefinition>A measurement of nutritional energy. The quantity of thermal energy required to raise one gram of water one degree Centigrade under standard conditions. 1 calorie equals 4.186 joules. (NCI)</nciodm:CDISCDefinition>
                    <nciodm:PreferredTerm>calorie</nciodm:PreferredTerm>
                </EnumeratedItem>
                <EnumeratedItem CodedValue="CAN" nciodm:ExtCodeID="C48479">
                    <nciodm:CDISCSynonym>Can Dosing Unit</nciodm:CDISCSynonym>
                    <nciodm:CDISCDefinition>A dosing measurement based on the can unit.(NCI)</nciodm:CDISCDefinition>
                    <nciodm:PreferredTerm>Can Dosing Unit</nciodm:PreferredTerm>
                </EnumeratedItem>
                <EnumeratedItem CodedValue="CAPFUL" nciodm:ExtCodeID="C102405">
                    <nciodm:CDISCSynonym>Capful Dosing Unit</nciodm:CDISCSynonym>
                    <nciodm:CDISCDefinition>A unit of measure equal to the amount that the cap on the bottle can contain.</nciodm:CDISCDefinition>
                    <nciodm:PreferredTerm>Capful Dosing Unit</nciodm:PreferredTerm>
                </EnumeratedItem>
                <EnumeratedItem CodedValue="CAPLET" nciodm:ExtCodeID="C64696">
                    <nciodm:CDISCSynonym>Caplet Dosing Unit</nciodm:CDISCSynonym>
                    <nciodm:CDISCDefinition>A dosing measurement based on the caplet unit.</nciodm:CDISCDefinition>
                    <nciodm:PreferredTerm>Caplet Dosing Unit</nciodm:PreferredTerm>
                </EnumeratedItem>
                <EnumeratedItem CodedValue="CAPSULE" nciodm:ExtCodeID="C48480">
                    <nciodm:CDISCSynonym>Capsule Dosing Unit</nciodm:CDISCSynonym>
                    <nciodm:CDISCSynonym>cap</nciodm:CDISCSynonym>
                    <nciodm:CDISCDefinition>A dosing measurement based on the capsule unit.(NCI)</nciodm:CDISCDefinition>
                    <nciodm:PreferredTerm>Capsule Dosing Unit</nciodm:PreferredTerm>
                </EnumeratedItem>
                <EnumeratedItem CodedValue="CARTRIDGE" nciodm:ExtCodeID="C48481">
                    <nciodm:CDISCSynonym>Cartridge Dosing Unit</nciodm:CDISCSynonym>
                    <nciodm:CDISCDefinition>A dosing measurement based on the cartridge unit.(NCI)</nciodm:CDISCDefinition>
                    <nciodm:PreferredTerm>Cartridge Dosing Unit</nciodm:PreferredTerm>
                </EnumeratedItem>
                <EnumeratedItem CodedValue="CCID 50/dose" nciodm:ExtCodeID="C70535">
                    <nciodm:CDISCSynonym>50 Percent Cell Culture Infective Dose per Dose</nciodm:CDISCSynonym>
                    <nciodm:CDISCDefinition>A potency unit equal to the potency at which one dose of preparation contains one 50 percent cell culture infective dose.(NCI)</nciodm:CDISCDefinition>
                    <nciodm:PreferredTerm>50 Percent Cell Culture Infective Dose per Dose</nciodm:PreferredTerm>
                </EnumeratedItem>
                <EnumeratedItem CodedValue="CCID 50/mL" nciodm:ExtCodeID="C120845">
                    <nciodm:CDISCSynonym>50 Percent Cell Culture Infective Dose per Milliliter</nciodm:CDISCSynonym>
                    <nciodm:CDISCDefinition>A potency unit equal to the potency at which one milliliter of preparation contains one 50 percent cell culture infective dose. (NCI)</nciodm:CDISCDefinition>
                    <nciodm:PreferredTerm>50 Percent Cell Culture Infective Dose per Milliliter</nciodm:PreferredTerm>
                </EnumeratedItem>
                <EnumeratedItem CodedValue="cd" nciodm:ExtCodeID="C42538">
                    <nciodm:CDISCSynonym>Candela</nciodm:CDISCSynonym>
                    <nciodm:CDISCDefinition>The candela is the basic unit of luminous intensity. It is the luminous intensity in a given direction of a small monochromatic light source at 540 terahertz emitting 1/683 watt per steradian in that direction. This is dependent upon the definitions of the meter, kilogram, and second.(NCI)</nciodm:CDISCDefinition>
                    <nciodm:PreferredTerm>Candela</nciodm:PreferredTerm>
                </EnumeratedItem>
                <EnumeratedItem CodedValue="cd*s/m2" nciodm:ExtCodeID="C122203">
                    <nciodm:CDISCDefinition>A unit of luminous intensity expressed as one candela in one second of light emittance per square meter of area.</nciodm:CDISCDefinition>
                    <nciodm:PreferredTerm>Candela Second per Square Meter</nciodm:PreferredTerm>
                </EnumeratedItem>
                <EnumeratedItem CodedValue="cd/m2" nciodm:ExtCodeID="C122204">
                    <nciodm:CDISCDefinition>A unit of luminous intensity expressed as one candela per square meter of area.</nciodm:CDISCDefinition>
                    <nciodm:PreferredTerm>Candela per Square Meter</nciodm:PreferredTerm>
                </EnumeratedItem>
                <EnumeratedItem CodedValue="CFU/g" nciodm:ExtCodeID="C68898">
                    <nciodm:CDISCSynonym>Colony Forming Unit per Gram</nciodm:CDISCSynonym>
                    <nciodm:CDISCDefinition>A unit of measurement of viable bacterial organisms in a unit mass of substance of interest defined as the number of colony forming units in one gram of substance.(NCI)</nciodm:CDISCDefinition>
                    <nciodm:PreferredTerm>Colony Forming Unit per Gram</nciodm:PreferredTerm>
                </EnumeratedItem>
                <EnumeratedItem CodedValue="CFU/mL" nciodm:ExtCodeID="C68902">
                    <nciodm:CDISCSynonym>Colony Forming Unit per Milliliter</nciodm:CDISCSynonym>
                    <nciodm:CDISCDefinition>A unit of measurement of viable bacterial organisms in a unit volume of substance of interest defined as the number of colony forming units in one milliliter of substance.(NCI)</nciodm:CDISCDefinition>
                    <nciodm:PreferredTerm>Colony Forming Unit per Milliliter</nciodm:PreferredTerm>
                </EnumeratedItem>
                <EnumeratedItem CodedValue="cg" nciodm:ExtCodeID="C64554">
                    <nciodm:CDISCSynonym>Centigram</nciodm:CDISCSynonym>
                    <nciodm:CDISCDefinition>A unit of mass equal to one hundredth of a gram.(NCI)</nciodm:CDISCDefinition>
                    <nciodm:PreferredTerm>Centigram</nciodm:PreferredTerm>
                </EnumeratedItem>
                <EnumeratedItem CodedValue="cGy" nciodm:ExtCodeID="C64693">
                    <nciodm:CDISCSynonym>Centigray</nciodm:CDISCSynonym>
                    <nciodm:CDISCDefinition>The metric unit of absorbed radiation dose equal to the absorption of one hundredth of joule of radiation energy per kilogram of matter.</nciodm:CDISCDefinition>
                    <nciodm:PreferredTerm>Centigray</nciodm:PreferredTerm>
                </EnumeratedItem>
                <EnumeratedItem CodedValue="Ci" nciodm:ExtCodeID="C48466">
                    <nciodm:CDISCSynonym>Curie</nciodm:CDISCSynonym>
                    <nciodm:CDISCDefinition>A unit of radioactivity defined as 3.7 E10 atomic disintegrations or other nuclear transformations per second. One Curie is equal to 37 gigabecquerels.(NCI)</nciodm:CDISCDefinition>
                    <nciodm:PreferredTerm>Curie</nciodm:PreferredTerm>
                </EnumeratedItem>
                <EnumeratedItem CodedValue="Ci/g" nciodm:ExtCodeID="C70528">
                    <nciodm:CDISCSynonym>Curie per Gram</nciodm:CDISCSynonym>
                    <nciodm:CDISCSynonym>Microcurie per Microgram</nciodm:CDISCSynonym>
                    <nciodm:CDISCSynonym>Millicurie per Milligram</nciodm:CDISCSynonym>
                    <nciodm:CDISCSynonym>mCi/mg</nciodm:CDISCSynonym>
                    <nciodm:CDISCSynonym>uCi/ug</nciodm:CDISCSynonym>
                    <nciodm:CDISCDefinition>A unit of specific radioactivity (massic activity) equal to activity of one Curie of the sample with total mass of one gram.(NCI)</nciodm:CDISCDefinition>
                    <nciodm:PreferredTerm>Curie per Gram</nciodm:PreferredTerm>
                </EnumeratedItem>
                <EnumeratedItem CodedValue="Ci/kg" nciodm:ExtCodeID="C70529">
                    <nciodm:CDISCSynonym>Curie per Kilogram</nciodm:CDISCSynonym>
                    <nciodm:CDISCSynonym>Microcurie per Milligram</nciodm:CDISCSynonym>
                    <nciodm:CDISCSynonym>Millicurie per Gram</nciodm:CDISCSynonym>
                    <nciodm:CDISCSynonym>mCi/g</nciodm:CDISCSynonym>
                    <nciodm:CDISCSynonym>uCi/mg</nciodm:CDISCSynonym>
                    <nciodm:CDISCDefinition>A unit of specific radioactivity (massic activity) equal to activity of one Curie of the sample with total mass of one kilogram.(NCI)</nciodm:CDISCDefinition>
                    <nciodm:PreferredTerm>Curie per Kilogram</nciodm:PreferredTerm>
                </EnumeratedItem>
                <EnumeratedItem CodedValue="Ci/L" nciodm:ExtCodeID="C71170">
                    <nciodm:CDISCSynonym>Curie per Liter</nciodm:CDISCSynonym>
                    <nciodm:CDISCSynonym>Microcurie per Microliter</nciodm:CDISCSynonym>
                    <nciodm:CDISCSynonym>uCi/uL</nciodm:CDISCSynonym>
                    <nciodm:CDISCDefinition>A unit of volumetric radioactivity concentration defined as a concentration of a radionuclide with an activity equal to one Curie per unit volume equal to one liter.(NCI)</nciodm:CDISCDefinition>
                    <nciodm:PreferredTerm>Curie per Liter</nciodm:PreferredTerm>
                </EnumeratedItem>
                <EnumeratedItem CodedValue="Ci/mg" nciodm:ExtCodeID="C70531">
                    <nciodm:CDISCSynonym>Curie per Milligram</nciodm:CDISCSynonym>
                    <nciodm:CDISCSynonym>Millicurie per Microgram</nciodm:CDISCSynonym>
                    <nciodm:CDISCSynonym>mCi/ug</nciodm:CDISCSynonym>
                    <nciodm:CDISCDefinition>A unit of specific radioactivity (massic activity) equal to activity of one Curie of the sample with total mass of one milligram.(NCI)</nciodm:CDISCDefinition>
                    <nciodm:PreferredTerm>Curie per Milligram</nciodm:PreferredTerm>
                </EnumeratedItem>
                <EnumeratedItem CodedValue="Ci/mL" nciodm:ExtCodeID="C71172">
                    <nciodm:CDISCSynonym>Curie per Milliliter</nciodm:CDISCSynonym>
                    <nciodm:CDISCDefinition>A unit of volumetric radioactivity concentration defined as a concentration of a radionuclide with an activity equal to one Curie per unit volume equal to one milliliter.(NCI)</nciodm:CDISCDefinition>
                    <nciodm:PreferredTerm>Curie per Milliliter</nciodm:PreferredTerm>
                </EnumeratedItem>
                <EnumeratedItem CodedValue="Ci/ug" nciodm:ExtCodeID="C70530">
                    <nciodm:CDISCSynonym>Ci/mcg</nciodm:CDISCSynonym>
                    <nciodm:CDISCSynonym>Curie per Microgram</nciodm:CDISCSynonym>
                    <nciodm:CDISCDefinition>A unit of specific radioactivity (massic activity) equal to activity of one Curie of the sample with total mass of one microgram.(NCI)</nciodm:CDISCDefinition>
                    <nciodm:PreferredTerm>Curie per Microgram</nciodm:PreferredTerm>
                </EnumeratedItem>
                <EnumeratedItem CodedValue="Ci/uL" nciodm:ExtCodeID="C71171">
                    <nciodm:CDISCSynonym>Ci/mcL</nciodm:CDISCSynonym>
                    <nciodm:CDISCSynonym>Curie per Microliter</nciodm:CDISCSynonym>
                    <nciodm:CDISCDefinition>A unit of volumetric radioactivity concentration defined as a concentration of a radionuclide with an activity equal to one Curie per unit volume equal to one millionth of a liter.(NCI)</nciodm:CDISCDefinition>
                    <nciodm:PreferredTerm>Curie per Microliter</nciodm:PreferredTerm>
                </EnumeratedItem>
                <EnumeratedItem CodedValue="CIGAR" nciodm:ExtCodeID="C116244">
                    <nciodm:CDISCSynonym>Cigar Dosing Unit</nciodm:CDISCSynonym>
                    <nciodm:CDISCDefinition>A dosing measurement based on the cigar unit.</nciodm:CDISCDefinition>
                    <nciodm:PreferredTerm>Cigar Dosing Unit</nciodm:PreferredTerm>
                </EnumeratedItem>
                <EnumeratedItem CodedValue="CIGARETTE" nciodm:ExtCodeID="C116245">
                    <nciodm:CDISCSynonym>Cigarette Dosing Unit</nciodm:CDISCSynonym>
                    <nciodm:CDISCDefinition>A dosing measurement based on the cigarette unit.</nciodm:CDISCDefinition>
                    <nciodm:PreferredTerm>Cigarette Dosing Unit</nciodm:PreferredTerm>
                </EnumeratedItem>
                <EnumeratedItem CodedValue="cL" nciodm:ExtCodeID="C69087">
                    <nciodm:CDISCSynonym>Centiliter</nciodm:CDISCSynonym>
                    <nciodm:CDISCDefinition>The unit of volume equal to one hundredth of a liter or 10 milliliters or 10 cubic centimeters or 0.6102 cubic inch.</nciodm:CDISCDefinition>
                    <nciodm:PreferredTerm>Centiliter</nciodm:PreferredTerm>
                </EnumeratedItem>
                <EnumeratedItem CodedValue="cm" nciodm:ExtCodeID="C49668">
                    <nciodm:CDISCSynonym>Centimeter</nciodm:CDISCSynonym>
                    <nciodm:CDISCDefinition>A basic unit of length equal to one hundredth of a meter or approximately 0.393700787 inch.</nciodm:CDISCDefinition>
                    <nciodm:PreferredTerm>Centimeter</nciodm:PreferredTerm>
                </EnumeratedItem>
                <EnumeratedItem CodedValue="cm H2O" nciodm:ExtCodeID="C91060">
                    <nciodm:CDISCDefinition>A unit of pressure defined by a column of water with a height of one centimeter, frequently used to measure central venous pressure, intracranial pressure, and for pressures during mechanical ventilation.</nciodm:CDISCDefinition>
                    <nciodm:PreferredTerm>Centimeters of Water</nciodm:PreferredTerm>
                </EnumeratedItem>
                <EnumeratedItem CodedValue="cm/min" nciodm:ExtCodeID="C105481">
                    <nciodm:CDISCSynonym>Centimeters per Minute</nciodm:CDISCSynonym>
                    <nciodm:CDISCDefinition>A unit of both speed (scalar) and velocity (vector), defined as the distance of one centimeter travelled per unit time equal to one minute. (NCI)</nciodm:CDISCDefinition>
                    <nciodm:PreferredTerm>Centimeter Per Minute</nciodm:PreferredTerm>
                </EnumeratedItem>
                <EnumeratedItem CodedValue="cm/s" nciodm:ExtCodeID="C102406">
                    <nciodm:CDISCSynonym>cm/sec</nciodm:CDISCSynonym>
                    <nciodm:CDISCDefinition>A unit of both speed (scalar) and velocity (vector), defined as the distance of one centimeter travelled per unit time equal to one second. (NCI)</nciodm:CDISCDefinition>
                    <nciodm:PreferredTerm>Centimeter per Second</nciodm:PreferredTerm>
                </EnumeratedItem>
                <EnumeratedItem CodedValue="cm2" nciodm:ExtCodeID="C48460">
                    <nciodm:CDISCSynonym>Square Centimeter</nciodm:CDISCSynonym>
                    <nciodm:CDISCDefinition>A unit of area measurement equal to a square measuring one centimeter on each side. One square centimeter is equal to 10E-4 square meter.(NCI)</nciodm:CDISCDefinition>
                    <nciodm:PreferredTerm>Square Centimeter</nciodm:PreferredTerm>
                </EnumeratedItem>
                <EnumeratedItem CodedValue="cmol" nciodm:ExtCodeID="C68687">
                    <nciodm:CDISCSynonym>Centimole</nciodm:CDISCSynonym>
                    <nciodm:CDISCDefinition>A unit of amount of substance equal to one hundredth of a mole (10E-2 mole).(NCI)</nciodm:CDISCDefinition>
                    <nciodm:PreferredTerm>Centimole</nciodm:PreferredTerm>
                </EnumeratedItem>
                <EnumeratedItem CodedValue="cmol/L" nciodm:ExtCodeID="C68886">
                    <nciodm:CDISCSynonym>Millimoles per Deciliter</nciodm:CDISCSynonym>
                    <nciodm:CDISCSynonym>mmol/dL</nciodm:CDISCSynonym>
                    <nciodm:CDISCDefinition>A unit of concentration (molarity unit) equal to one centimole of solute in one liter of solution. (NCI)</nciodm:CDISCDefinition>
                    <nciodm:PreferredTerm>Centimole per Liter</nciodm:PreferredTerm>
                </EnumeratedItem>
                <EnumeratedItem CodedValue="COAT" nciodm:ExtCodeID="C48483">
                    <nciodm:CDISCSynonym>Coat Dosing Unit</nciodm:CDISCSynonym>
                    <nciodm:CDISCDefinition>A dosing measurement based on the coat unit.(NCI)</nciodm:CDISCDefinition>
                    <nciodm:PreferredTerm>Coat Dosing Unit</nciodm:PreferredTerm>
                </EnumeratedItem>
                <EnumeratedItem CodedValue="CONTAINER" nciodm:ExtCodeID="C48484">
                    <nciodm:CDISCSynonym>Container Dosing Unit</nciodm:CDISCSynonym>
                    <nciodm:CDISCDefinition>A dosing measurement based on the container unit.(NCI)</nciodm:CDISCDefinition>
                    <nciodm:PreferredTerm>Container Dosing Unit</nciodm:PreferredTerm>
                </EnumeratedItem>
                <EnumeratedItem CodedValue="copies/mL" nciodm:ExtCodeID="C100900">
                    <nciodm:CDISCDefinition>A unit of concentration expressed as a number of copies per unit volume equal to one milliliter.</nciodm:CDISCDefinition>
                    <nciodm:PreferredTerm>Copies per Milliliter</nciodm:PreferredTerm>
                </EnumeratedItem>
                <EnumeratedItem CodedValue="copies/ug" nciodm:ExtCodeID="C126079">
                    <nciodm:CDISCDefinition>A unit of concentration expressed as a number of copies per unit volume equal to one microgram.</nciodm:CDISCDefinition>
                    <nciodm:PreferredTerm>Copies per Microgram</nciodm:PreferredTerm>
                </EnumeratedItem>
                <EnumeratedItem CodedValue="copies/uL" nciodm:ExtCodeID="C116237">
                    <nciodm:CDISCDefinition>A unit of concentration expressed as a number of copies per unit volume equal to one microliter.</nciodm:CDISCDefinition>
                    <nciodm:PreferredTerm>Copies per Microliter</nciodm:PreferredTerm>
                </EnumeratedItem>
                <EnumeratedItem CodedValue="Coulomb" nciodm:ExtCodeID="C42550">
                    <nciodm:CDISCSynonym>Coulomb</nciodm:CDISCSynonym>
                    <nciodm:CDISCDefinition>A unit of quantity of electricity, equal to the quantity of charge transferred in one second across a conductor in which there is a constant current of one Ampere.(NCI)</nciodm:CDISCDefinition>
                    <nciodm:PreferredTerm>Coulomb</nciodm:PreferredTerm>
                </EnumeratedItem>
                <EnumeratedItem CodedValue="cpm" nciodm:ExtCodeID="C73688">
                    <nciodm:CDISCSynonym>Counts per Minute</nciodm:CDISCSynonym>
                    <nciodm:CDISCDefinition>A unit of frequency expressed as the detection rate of ionization events per minute.</nciodm:CDISCDefinition>
                    <nciodm:PreferredTerm>Count per Minute</nciodm:PreferredTerm>
                </EnumeratedItem>
                <EnumeratedItem CodedValue="cs" nciodm:ExtCodeID="C105482">
                    <nciodm:CDISCSynonym>10^-2 sec</nciodm:CDISCSynonym>
                    <nciodm:CDISCSynonym>Centisecond</nciodm:CDISCSynonym>
                    <nciodm:CDISCSynonym>csec</nciodm:CDISCSynonym>
                    <nciodm:CDISCDefinition>A unit of time equal to one hundredth of a second (10E-2 seconds). (NCI)</nciodm:CDISCDefinition>
                    <nciodm:PreferredTerm>Centisecond</nciodm:PreferredTerm>
                </EnumeratedItem>
                <EnumeratedItem CodedValue="CUP" nciodm:ExtCodeID="C54703">
                    <nciodm:CDISCSynonym>Cup Dosing Unit</nciodm:CDISCSynonym>
                    <nciodm:CDISCDefinition>A dosing measurement based on the cup unit.(NCI)</nciodm:CDISCDefinition>
                    <nciodm:PreferredTerm>Cup Dosing Unit</nciodm:PreferredTerm>
                </EnumeratedItem>
                <EnumeratedItem CodedValue="cy/cm" nciodm:ExtCodeID="C114242">
                    <nciodm:CDISCSynonym>Grating Cycles per Centimeter</nciodm:CDISCSynonym>
                    <nciodm:CDISCSynonym>cpcm</nciodm:CDISCSynonym>
                    <nciodm:CDISCDefinition>A unit of measure for the number of repeating vertical or horizontal bars per unit of length equal to one centimeter on a visual acuity testing card.</nciodm:CDISCDefinition>
                    <nciodm:PreferredTerm>Grating Cycles per Centimeter</nciodm:PreferredTerm>
                </EnumeratedItem>
                <EnumeratedItem CodedValue="cycle/min" nciodm:ExtCodeID="C71176">
                    <nciodm:CDISCSynonym>Cycle per Minute</nciodm:CDISCSynonym>
                    <nciodm:CDISCDefinition>A unit of frequency equal to the frequency at which one complete execution of a periodically repeated phenomenon, alternation, event, or sequence of events occurs per unit of time equal to one minute.(NCI)</nciodm:CDISCDefinition>
                    <nciodm:PreferredTerm>Cycle per Minute</nciodm:PreferredTerm>
                </EnumeratedItem>
                <EnumeratedItem CodedValue="cycle/sec" nciodm:ExtCodeID="C71480">
                    <nciodm:CDISCSynonym>Cycle per Second</nciodm:CDISCSynonym>
                    <nciodm:CDISCDefinition>A unit of frequency equal to the frequency at which one complete execution of a periodically repeated phenomenon, alternation, event, or sequence of events occurs per unit of time equal to one second.(NCI)</nciodm:CDISCDefinition>
                    <nciodm:PreferredTerm>Cycle per Second</nciodm:PreferredTerm>
                </EnumeratedItem>
                <EnumeratedItem CodedValue="CYLINDER" nciodm:ExtCodeID="C48489">
                    <nciodm:CDISCSynonym>Cylinder Dosing Unit</nciodm:CDISCSynonym>
                    <nciodm:CDISCDefinition>A dosing measurement based on the cylinder unit.(NCI)</nciodm:CDISCDefinition>
                    <nciodm:PreferredTerm>Cylinder Dosing Unit</nciodm:PreferredTerm>
                </EnumeratedItem>
                <EnumeratedItem CodedValue="DAgU" nciodm:ExtCodeID="C70501">
                    <nciodm:CDISCSynonym>D Antigen Unit</nciodm:CDISCSynonym>
                    <nciodm:CDISCDefinition>A unit of potency of poliovirus vaccine used for poliomyelitis prevention. The unit is poliovirus type-specific.(NCI)</nciodm:CDISCDefinition>
                    <nciodm:PreferredTerm>D Antigen Unit</nciodm:PreferredTerm>
                </EnumeratedItem>
                <EnumeratedItem CodedValue="DAgU/mL" nciodm:ExtCodeID="C70502">
                    <nciodm:CDISCSynonym>D Antigen Unit per Milliliter</nciodm:CDISCSynonym>
                    <nciodm:CDISCDefinition>A unit of potency of poliovirus vaccine expressed as a number of D antigen units per one milliliter of vaccine formulation.(NCI)</nciodm:CDISCDefinition>
                    <nciodm:PreferredTerm>D Antigen Unit per Milliliter</nciodm:PreferredTerm>
                </EnumeratedItem>
                <EnumeratedItem CodedValue="damol/L" nciodm:ExtCodeID="C105483">
                    <nciodm:CDISCSynonym>Decamole per Liter</nciodm:CDISCSynonym>
                    <nciodm:CDISCSynonym>Moles per Deciliter</nciodm:CDISCSynonym>
                    <nciodm:CDISCSynonym>mol/dL</nciodm:CDISCSynonym>
                    <nciodm:CDISCDefinition>A unit of concentration (molarity unit) equal to one decamole of solute in one liter of solution. (NCI)</nciodm:CDISCDefinition>
                    <nciodm:PreferredTerm>Decamole Per Liter</nciodm:PreferredTerm>
                </EnumeratedItem>
                <EnumeratedItem CodedValue="DAYS" nciodm:ExtCodeID="C25301">
                    <nciodm:CDISCDefinition>A unit of measurement of time equal to 24 hours.</nciodm:CDISCDefinition>
                    <nciodm:PreferredTerm>Day</nciodm:PreferredTerm>
                </EnumeratedItem>
                <EnumeratedItem CodedValue="dB" nciodm:ExtCodeID="C102407">
                    <nciodm:CDISCSynonym>Decibel</nciodm:CDISCSynonym>
                    <nciodm:CDISCDefinition>A unit of measure representing the intensity of an electrical signal or sound which is equal to ten times the logarithm of the ratio of two signals.</nciodm:CDISCDefinition>
                    <nciodm:PreferredTerm>Decibel</nciodm:PreferredTerm>
                </EnumeratedItem>
                <EnumeratedItem CodedValue="deg" nciodm:ExtCodeID="C68667">
                    <nciodm:CDISCSynonym>Degree Unit of Plane Angle</nciodm:CDISCSynonym>
                    <nciodm:CDISCDefinition>A unit of plane angle measurement equal to the length of the arc cut out by the angle, divided by the circumference of the circle, and multiplied by 360. The symbol for degrees is a small superscript circle. One radian is about 57 degrees and one degree is pi/180 radians.(NCI)</nciodm:CDISCDefinition>
                    <nciodm:PreferredTerm>Degree Unit of Plane Angle</nciodm:PreferredTerm>
                </EnumeratedItem>
                <EnumeratedItem CodedValue="DIOPTER" nciodm:ExtCodeID="C100899">
                    <nciodm:CDISCSynonym>Diopter</nciodm:CDISCSynonym>
                    <nciodm:CDISCDefinition>A unit of measurement of the optical power of a curved mirror or lens represented by the inverse of the focal length in meters.</nciodm:CDISCDefinition>
                    <nciodm:PreferredTerm>Diopter</nciodm:PreferredTerm>
                </EnumeratedItem>
                <EnumeratedItem CodedValue="DISK" nciodm:ExtCodeID="C48490">
                    <nciodm:CDISCSynonym>Disk Dosing Unit</nciodm:CDISCSynonym>
                    <nciodm:CDISCDefinition>A dosing measurement based on the disk unit.(NCI)</nciodm:CDISCDefinition>
                    <nciodm:PreferredTerm>Disk Dosing Unit</nciodm:PreferredTerm>
                </EnumeratedItem>
                <EnumeratedItem CodedValue="dL" nciodm:ExtCodeID="C64697">
                    <nciodm:CDISCSynonym>Deciliter</nciodm:CDISCSynonym>
                    <nciodm:CDISCDefinition>The unit of volume equal to one tenth of a liter. Accepted for use with the SI. (NCI)</nciodm:CDISCDefinition>
                    <nciodm:PreferredTerm>Deciliter</nciodm:PreferredTerm>
                </EnumeratedItem>
                <EnumeratedItem CodedValue="dmol" nciodm:ExtCodeID="C68685">
                    <nciodm:CDISCSynonym>Decimole</nciodm:CDISCSynonym>
                    <nciodm:CDISCDefinition>A unit of amount of substance equal to one tenth of a mole (10E-1 mole).(NCI)</nciodm:CDISCDefinition>
                    <nciodm:PreferredTerm>Decimole</nciodm:PreferredTerm>
                </EnumeratedItem>
                <EnumeratedItem CodedValue="DNA copies/mL" nciodm:ExtCodeID="C98719">
                    <nciodm:CDISCSynonym>DNA Copies per Milliliter</nciodm:CDISCSynonym>
                    <nciodm:CDISCDefinition>The unit of concentration of deoxyribonucleic acid (DNA) copies expressed as a number of copies in unit volume equal to one milliliter.</nciodm:CDISCDefinition>
                    <nciodm:PreferredTerm>DNA Copies per Milliliter</nciodm:PreferredTerm>
                </EnumeratedItem>
                <EnumeratedItem CodedValue="DPM" nciodm:ExtCodeID="C73710">
                    <nciodm:CDISCSynonym>Disintegrations per Minute</nciodm:CDISCSynonym>
                    <nciodm:CDISCDefinition>A unit of radioactive decay expressed in atoms of radioactive material that decay over a period of time equal to sixty seconds. (NCI)</nciodm:CDISCDefinition>
                    <nciodm:PreferredTerm>Disintegration per Minute</nciodm:PreferredTerm>
                </EnumeratedItem>
                <EnumeratedItem CodedValue="dpm/0.5 mL" nciodm:ExtCodeID="C120846">
                    <nciodm:CDISCSynonym>Disintegrations per Minute per 0.5 Milliliter</nciodm:CDISCSynonym>
                    <nciodm:CDISCDefinition>A unit of radioactive decay expressed in atoms of radioactive material that decay over a period of time equal to sixty seconds in a volume unit equal to a half milliliter.</nciodm:CDISCDefinition>
                    <nciodm:PreferredTerm>Disintegrations per Minute per 0.5 Milliliter</nciodm:PreferredTerm>
                </EnumeratedItem>
                <EnumeratedItem CodedValue="dpm/100mg" nciodm:ExtCodeID="C117968">
                    <nciodm:CDISCSynonym>Disintegrations per Minute per 100 milligrams</nciodm:CDISCSynonym>
                    <nciodm:CDISCSynonym>dpm/cg</nciodm:CDISCSynonym>
                    <nciodm:CDISCDefinition>A unit of radioactive decay expressed in atoms of radioactive material that decay over a period of time equal to sixty seconds in a mass unit equal to one hundred milligrams.</nciodm:CDISCDefinition>
                    <nciodm:PreferredTerm>Disintegration per Minute per 100 milligrams</nciodm:PreferredTerm>
                </EnumeratedItem>
                <EnumeratedItem CodedValue="dpm/mg" nciodm:ExtCodeID="C117969">
                    <nciodm:CDISCSynonym>Disintegrations per Minute per Milligram</nciodm:CDISCSynonym>
                    <nciodm:CDISCDefinition>A unit of radioactive decay expressed in atoms of radioactive material that decay over a period of time equal to sixty seconds in a mass unit equal to one milligram.</nciodm:CDISCDefinition>
                    <nciodm:PreferredTerm>Disintegration per Minute per Milligram</nciodm:PreferredTerm>
                </EnumeratedItem>
                <EnumeratedItem CodedValue="dpm/mL" nciodm:ExtCodeID="C117970">
                    <nciodm:CDISCSynonym>Disintegrations per Minute per Milliliter</nciodm:CDISCSynonym>
                    <nciodm:CDISCDefinition>A unit of radioactive decay expressed in atoms of radioactive material that decay over a period of time equal to sixty seconds in a volume unit equal to one milliliter.</nciodm:CDISCDefinition>
                    <nciodm:PreferredTerm>Disintegration per Minute per Milliliter</nciodm:PreferredTerm>
                </EnumeratedItem>
                <EnumeratedItem CodedValue="dram" nciodm:ExtCodeID="C64564">
                    <nciodm:CDISCSynonym>Dram</nciodm:CDISCSynonym>
                    <nciodm:CDISCDefinition>A unit of mass equal to 1/16 Avoirdupois ounce or 1/256 Avoirdupois pound. One dram equals approximately 1.7718451953125 grams.(NCI)</nciodm:CDISCDefinition>
                    <nciodm:PreferredTerm>Dram Mass Unit</nciodm:PreferredTerm>
                </EnumeratedItem>
                <EnumeratedItem CodedValue="DRUM" nciodm:ExtCodeID="C48492">
                    <nciodm:CDISCSynonym>Drum Dosing Unit</nciodm:CDISCSynonym>
                    <nciodm:CDISCDefinition>A dosing measurement based on the drum unit.(NCI)</nciodm:CDISCDefinition>
                    <nciodm:PreferredTerm>Drum Dosing Unit</nciodm:PreferredTerm>
                </EnumeratedItem>
                <EnumeratedItem CodedValue="dyn" nciodm:ExtCodeID="C70470">
                    <nciodm:CDISCSynonym>Dyne</nciodm:CDISCSynonym>
                    <nciodm:CDISCDefinition>A unit of force defined as the force that accelerates a mass of one gram at the rate of one centimeter per second squared. One dyne is equal to 10E-5 Newton and 2.248E-6 pounds of force.(NCI)</nciodm:CDISCDefinition>
                    <nciodm:PreferredTerm>Dyne</nciodm:PreferredTerm>
                </EnumeratedItem>
                <EnumeratedItem CodedValue="EIA unit" nciodm:ExtCodeID="C122205">
                    <nciodm:CDISCSynonym>EIA value</nciodm:CDISCSynonym>
                    <nciodm:CDISCSynonym>Enzyme Immunoassay Unit</nciodm:CDISCSynonym>
                    <nciodm:CDISCDefinition>A unit for measuring concentration or/and reactivity of a test substance (an antigen or antibody of interest) as defined in the literature reference standard for the particular quantitative enzyme immunoassay method.</nciodm:CDISCDefinition>
                    <nciodm:PreferredTerm>Enzyme Immunoassay Unit</nciodm:PreferredTerm>
                </EnumeratedItem>
                <EnumeratedItem CodedValue="EID 50/dose" nciodm:ExtCodeID="C70533">
                    <nciodm:CDISCSynonym>50 Percent Embryo Infective Dose per Dose</nciodm:CDISCSynonym>
                    <nciodm:CDISCDefinition>A potency unit for measuring infectious activity of a biologic product or an infectious agent preparation equal to the potency at which one dose of infectious material contains one 50 percent embryo infective dose.(NCI)</nciodm:CDISCDefinition>
                    <nciodm:PreferredTerm>50 Percent Embryo Infective Dose per Dose</nciodm:PreferredTerm>
                </EnumeratedItem>
                <EnumeratedItem CodedValue="EID 50/mL" nciodm:ExtCodeID="C120847">
                    <nciodm:CDISCSynonym>50 Percent Embryo Infective Dose per Milliliter</nciodm:CDISCSynonym>
                    <nciodm:CDISCDefinition>A potency unit equal to the potency at which one milliliter of preparation contains one 50 percent embryo infective dose.</nciodm:CDISCDefinition>
                    <nciodm:PreferredTerm>50 Percent Embryo Infective Dose per Milliliter</nciodm:PreferredTerm>
                </EnumeratedItem>
                <EnumeratedItem CodedValue="ELISA unit" nciodm:ExtCodeID="C68875">
                    <nciodm:CDISCSynonym>Enzyme-Linked Immunosorbent Assay Unit</nciodm:CDISCSynonym>
                    <nciodm:CDISCDefinition>A unit for measuring concentration or/and reactivity of a test substance (an antigen or antibody of interest) as defined in the literature reference standard for the particular quantitative enzyme-linked immunosorbent assay method. The enzyme-linked immunosorbent assay unit is used to express potency of immunologically active substances and products, e.g. vaccines.(NCI)</nciodm:CDISCDefinition>
                    <nciodm:PreferredTerm>Enzyme-Linked Immunosorbent Assay Unit</nciodm:PreferredTerm>
                </EnumeratedItem>
                <EnumeratedItem CodedValue="ELISA unit/dose" nciodm:ExtCodeID="C68876">
                    <nciodm:CDISCSynonym>Enzyme-Linked Immunosorbent Assay Unit per Dose</nciodm:CDISCSynonym>
                    <nciodm:CDISCDefinition>A unit for measuring potency of immunologically active substance in a product determined as reactivity in a quantitative immunoassay for particular antigen or antibody and expressed per quantity of preparation used as a single dose.(NCI)</nciodm:CDISCDefinition>
                    <nciodm:PreferredTerm>Enzyme-Linked Immunosorbent Assay Unit per Dose</nciodm:PreferredTerm>
                </EnumeratedItem>
                <EnumeratedItem CodedValue="ELISA unit/mL" nciodm:ExtCodeID="C68877">
                    <nciodm:CDISCSynonym>Enzyme-Linked Immunosorbent Assay Unit per Milliliter</nciodm:CDISCSynonym>
                    <nciodm:CDISCDefinition>A unit for measuring potency of immunologically active substance in a product determined as reactivity in a quantitative immunoassay for particular antigen or antibody and expressed per unit volume equal to one milliliter.(NCI)</nciodm:CDISCDefinition>
                    <nciodm:PreferredTerm>Enzyme-Linked Immunosorbent Assay Unit per Milliliter</nciodm:PreferredTerm>
                </EnumeratedItem>
                <EnumeratedItem CodedValue="Enzyme U" nciodm:ExtCodeID="C64778">
                    <nciodm:CDISCSynonym>Enzyme Unit</nciodm:CDISCSynonym>
                    <nciodm:CDISCDefinition>A unit of catalytic activity measurement defined as the quantity of a particular enzyme that catalyzes the transformation of one micromole of the substrate per minute under standard conditions for specified assay system.</nciodm:CDISCDefinition>
                    <nciodm:PreferredTerm>Enzyme Unit</nciodm:PreferredTerm>
                </EnumeratedItem>
                <EnumeratedItem CodedValue="eq" nciodm:ExtCodeID="C67273">
                    <nciodm:CDISCSynonym>Equivalent Weight</nciodm:CDISCSynonym>
                    <nciodm:CDISCDefinition>A unit of relative amount of a substance that combines with or displaces 8.0 grams of oxygen or 1.008 gram of hydrogen. The unit is usually expressed in grams and is equal to the amount of substance that gains or loses one mole of electrons in a redox reaction, or to the amount of substances that releases or accepts one mole of hydrogen ions in a neutralization reaction; or to the amount of electrolyte that carries one mole of positive or negative charge. This is a large unit and measurements are more often done in its derivatives, e.g. in milliequivalents.(NCI)</nciodm:CDISCDefinition>
                    <nciodm:PreferredTerm>Equivalent Weight</nciodm:PreferredTerm>
                </EnumeratedItem>
                <EnumeratedItem CodedValue="EU" nciodm:ExtCodeID="C96599">
                    <nciodm:CDISCSynonym>EU/dL</nciodm:CDISCSynonym>
                    <nciodm:CDISCSynonym>Ehrlich Units</nciodm:CDISCSynonym>
                    <nciodm:CDISCDefinition>A unit of measure equal to one milligram of urobilinogen per deciliter.</nciodm:CDISCDefinition>
                    <nciodm:PreferredTerm>Ehrlich Unit</nciodm:PreferredTerm>
                </EnumeratedItem>
                <EnumeratedItem CodedValue="F" nciodm:ExtCodeID="C44277">
                    <nciodm:CDISCSynonym>Degree Fahrenheit</nciodm:CDISCSynonym>
                    <nciodm:CDISCDefinition>The Fahrenheit temperature scale is named after the German physicist Gabriel Fahrenheit (1686-1736), who proposed it in 1724. In this scale, the freezing point of water is 32 degrees Fahrenheit and the boiling point is 212 degrees, placing the boiling and melting points of water 180 degrees apart. In this scale a degree Fahrenheit is 5/9ths of a Kelvin (or of a degree Celsius), and minus 40 degrees Fahrenheit is equal to minus 40 degrees Celsius. (NCI)</nciodm:CDISCDefinition>
                    <nciodm:PreferredTerm>Degree Fahrenheit</nciodm:PreferredTerm>
                </EnumeratedItem>
                <EnumeratedItem CodedValue="Farad" nciodm:ExtCodeID="C42552">
                    <nciodm:CDISCSynonym>Farad</nciodm:CDISCSynonym>
                    <nciodm:CDISCDefinition>A unit of capacitance equal to the capacitance of a capacitor having an equal and opposite charge of one coulomb on each plate and a potential difference of one volt between the plates.(NCI)</nciodm:CDISCDefinition>
                    <nciodm:PreferredTerm>Farad</nciodm:PreferredTerm>
                </EnumeratedItem>
                <EnumeratedItem CodedValue="FEU" nciodm:ExtCodeID="C96649">
                    <nciodm:CDISCSynonym>Fibrinogen Equivalent Units</nciodm:CDISCSynonym>
                    <nciodm:CDISCDefinition>A unit of measure for the concentration of fibrin degradation products in a sample, calculated based upon the mass of fibrinogen contained within that sample.</nciodm:CDISCDefinition>
                    <nciodm:PreferredTerm>Fibrinogen Equivalent Unit</nciodm:PreferredTerm>
                </EnumeratedItem>
                <EnumeratedItem CodedValue="fg" nciodm:ExtCodeID="C64552">
                    <nciodm:CDISCSynonym>Femtogram</nciodm:CDISCSynonym>
                    <nciodm:CDISCDefinition>A unit of mass equal to one quadrillionth of a gram (10E-15 gram).(NCI)</nciodm:CDISCDefinition>
                    <nciodm:PreferredTerm>Femtogram</nciodm:PreferredTerm>
                </EnumeratedItem>
                <EnumeratedItem CodedValue="FINGERTIP UNIT" nciodm:ExtCodeID="C71321">
                    <nciodm:CDISCSynonym>Fingertip Dosing Unit</nciodm:CDISCSynonym>
                    <nciodm:CDISCDefinition>An arbitrary dosing unit used predominantly for semisolid topical formulations such as cream, ointment, paste, etc. One fingertip unit is the amount of a product that is squeezed out from a standard tube with 5-millimeter diameter nozzle along an adult's fingertip. A fingertip length is defined from the tip of the index finger to the first finger crease. A fingertip dosing unit varies with age and size of the body. The average fingertip unit is equal to approximately 0.5 gram for an adult male and 0.4 gram for an adult female.(NCI)</nciodm:CDISCDefinition>
                    <nciodm:PreferredTerm>Fingertip Dosing Unit</nciodm:PreferredTerm>
                </EnumeratedItem>
                <EnumeratedItem CodedValue="fL" nciodm:ExtCodeID="C64780">
                    <nciodm:CDISCSynonym>Cubic Micrometer</nciodm:CDISCSynonym>
                    <nciodm:CDISCSynonym>Cubic Micron</nciodm:CDISCSynonym>
                    <nciodm:CDISCSynonym>Femtoliter</nciodm:CDISCSynonym>
                    <nciodm:CDISCSynonym>um3</nciodm:CDISCSynonym>
                    <nciodm:CDISCDefinition>The unit of volume equal 10E-15 liter.</nciodm:CDISCDefinition>
                    <nciodm:PreferredTerm>Femtoliter</nciodm:PreferredTerm>
                </EnumeratedItem>
                <EnumeratedItem CodedValue="fmol" nciodm:ExtCodeID="C68854">
                    <nciodm:CDISCSynonym>Femtomole</nciodm:CDISCSynonym>
                    <nciodm:CDISCDefinition>A unit of amount of substance equal to one quadrillionth of a mole (10E-15 mole).(NCI)</nciodm:CDISCDefinition>
                    <nciodm:PreferredTerm>Femtomole</nciodm:PreferredTerm>
                </EnumeratedItem>
                <EnumeratedItem CodedValue="fmol/g" nciodm:ExtCodeID="C73711">
                    <nciodm:CDISCSynonym>Femtomole per Gram</nciodm:CDISCSynonym>
                    <nciodm:CDISCDefinition>A molality unit that describes the amount of substance, expressed in femtomole(s) per gram. (NCI)</nciodm:CDISCDefinition>
                    <nciodm:PreferredTerm>Femtomole per Gram</nciodm:PreferredTerm>
                </EnumeratedItem>
                <EnumeratedItem CodedValue="fmol/L" nciodm:ExtCodeID="C68887">
                    <nciodm:CDISCSynonym>Femtomole per Liter</nciodm:CDISCSynonym>
                    <nciodm:CDISCDefinition>A unit of concentration (molarity unit) equal to one quadrillionth of a mole (10E-15 mole) of solute in one liter of solution. (NCI)</nciodm:CDISCDefinition>
                    <nciodm:PreferredTerm>Femtomole per Liter</nciodm:PreferredTerm>
                </EnumeratedItem>
                <EnumeratedItem CodedValue="fmol/L/sec" nciodm:ExtCodeID="C122206">
                    <nciodm:CDISCSynonym>Femtomoles per Liter per Second</nciodm:CDISCSynonym>
                    <nciodm:CDISCDefinition>A concentration unit equal to one femtomole of solute in one liter of solution per unit of time equal to one second. (NCI)</nciodm:CDISCDefinition>
                    <nciodm:PreferredTerm>Femtomole per Liter per Second</nciodm:PreferredTerm>
                </EnumeratedItem>
                <EnumeratedItem CodedValue="foz_br" nciodm:ExtCodeID="C48577">
                    <nciodm:CDISCSynonym>Fluid Ounce Imperial</nciodm:CDISCSynonym>
                    <nciodm:CDISCDefinition>A traditional unit of liquid volume equal in the British Imperial system to 1/20 pint, or 1.733871 cubic inches or 28.413063 milliliters.</nciodm:CDISCDefinition>
                    <nciodm:PreferredTerm>Fluid Ounce British</nciodm:PreferredTerm>
                </EnumeratedItem>
                <EnumeratedItem CodedValue="foz_us" nciodm:ExtCodeID="C48494">
                    <nciodm:CDISCSynonym>Fluid Ounce US</nciodm:CDISCSynonym>
                    <nciodm:CDISCDefinition>A traditional unit of liquid volume equal in the US customary system to 1/16 pint, or 1.804687 cubic inches or 29.573531 milliliters.</nciodm:CDISCDefinition>
                    <nciodm:PreferredTerm>Fluid Ounce US</nciodm:PreferredTerm>
                </EnumeratedItem>
                <EnumeratedItem CodedValue="fraction of 1" nciodm:ExtCodeID="C105484">
                    <nciodm:CDISCDefinition>A unit for expressing a percentage as a decimal whereby the total value is measured as a fraction of the numeric 1.</nciodm:CDISCDefinition>
                    <nciodm:PreferredTerm>Fraction of 1</nciodm:PreferredTerm>
                </EnumeratedItem>
                <EnumeratedItem CodedValue="Frames/s" nciodm:ExtCodeID="C106524">
                    <nciodm:CDISCSynonym>F/s</nciodm:CDISCSynonym>
                    <nciodm:CDISCSynonym>FPS</nciodm:CDISCSynonym>
                    <nciodm:CDISCSynonym>Frames per Second</nciodm:CDISCSynonym>
                    <nciodm:CDISCSynonym>Frames/sec</nciodm:CDISCSynonym>
                    <nciodm:CDISCDefinition>A unit of measure equal to the number of visual frames per unit of time equal to one second. (NCI)</nciodm:CDISCDefinition>
                    <nciodm:PreferredTerm>Frames Per Second</nciodm:PreferredTerm>
                </EnumeratedItem>
                <EnumeratedItem CodedValue="ft" nciodm:ExtCodeID="C71253">
                    <nciodm:CDISCSynonym>Foot</nciodm:CDISCSynonym>
                    <nciodm:CDISCDefinition>A unit of length defined by the U.S. National Bureau of Standards as 30.48 centimeters. It is equal to 0.3048 meter, 12 inches, or to approximately 0.999998 survey foot.(NCI)</nciodm:CDISCDefinition>
                    <nciodm:PreferredTerm>International Foot</nciodm:PreferredTerm>
                </EnumeratedItem>
                <EnumeratedItem CodedValue="ft2" nciodm:ExtCodeID="C48461">
                    <nciodm:CDISCSynonym>Square Foot</nciodm:CDISCSynonym>
                    <nciodm:CDISCDefinition>A unit of area equal to 144 square inches, 929.0304 square centimeters, or 9.290304E-2 square meters.(NCI)</nciodm:CDISCDefinition>
                    <nciodm:PreferredTerm>Square Foot</nciodm:PreferredTerm>
                </EnumeratedItem>
                <EnumeratedItem CodedValue="ft3" nciodm:ExtCodeID="C68859">
                    <nciodm:CDISCSynonym>Standard Cubic Foot</nciodm:CDISCSynonym>
                    <nciodm:CDISCDefinition>A unit used in physical chemistry to express the amount of substance of an ideal gas in one cubic foot at 60 degrees Fahrenheit and pressure of one atmosphere.(NCI)</nciodm:CDISCDefinition>
                    <nciodm:PreferredTerm>Standard Cubic Foot</nciodm:PreferredTerm>
                </EnumeratedItem>
                <EnumeratedItem CodedValue="g" nciodm:ExtCodeID="C48155">
                    <nciodm:CDISCSynonym>Gram</nciodm:CDISCSynonym>
                    <nciodm:CDISCDefinition>A unit of mass equal to one thousandth (10E-3) of a kilogram, the kilogram being the base unit of mass in the International System of Units (SI).</nciodm:CDISCDefinition>
                    <nciodm:PreferredTerm>Gram</nciodm:PreferredTerm>
                </EnumeratedItem>
                <EnumeratedItem CodedValue="g/animal" nciodm:ExtCodeID="C73713">
                    <nciodm:CDISCSynonym>Gram per Animal</nciodm:CDISCSynonym>
                    <nciodm:CDISCDefinition>A unit of measure expressed in gram(s) per animal.</nciodm:CDISCDefinition>
                    <nciodm:PreferredTerm>Gram per Animal</nciodm:PreferredTerm>
                </EnumeratedItem>
                <EnumeratedItem CodedValue="g/animal/day" nciodm:ExtCodeID="C73714">
                    <nciodm:CDISCSynonym>Gram per Animal per Day</nciodm:CDISCSynonym>
                    <nciodm:CDISCDefinition>A unit of measure expressed in gram(s) per animal per period of time equal to twenty-four hours.</nciodm:CDISCDefinition>
                    <nciodm:PreferredTerm>Gram per Animal per Day</nciodm:PreferredTerm>
                </EnumeratedItem>
                <EnumeratedItem CodedValue="g/animal/wk" nciodm:ExtCodeID="C73715">
                    <nciodm:CDISCSynonym>Gram per Animal per Week</nciodm:CDISCSynonym>
                    <nciodm:CDISCDefinition>A unit of measure expressed in gram(s) per animal per period of time equal to seven days.</nciodm:CDISCDefinition>
                    <nciodm:PreferredTerm>Gram per Animal per Week</nciodm:PreferredTerm>
                </EnumeratedItem>
                <EnumeratedItem CodedValue="g/cage" nciodm:ExtCodeID="C73716">
                    <nciodm:CDISCSynonym>Gram per Cage</nciodm:CDISCSynonym>
                    <nciodm:CDISCDefinition>A unit of measure expressed in gram(s) per cage.</nciodm:CDISCDefinition>
                    <nciodm:PreferredTerm>Gram per Cage</nciodm:PreferredTerm>
                </EnumeratedItem>
                <EnumeratedItem CodedValue="g/cage/day" nciodm:ExtCodeID="C73717">
                    <nciodm:CDISCSynonym>Gram per Cage per Day</nciodm:CDISCSynonym>
                    <nciodm:CDISCDefinition>A unit of measure expressed in gram(s) per cage per period of time equal to twenty-four hours.</nciodm:CDISCDefinition>
                    <nciodm:PreferredTerm>Gram per Cage per Day</nciodm:PreferredTerm>
                </EnumeratedItem>
                <EnumeratedItem CodedValue="g/cage/wk" nciodm:ExtCodeID="C73718">
                    <nciodm:CDISCSynonym>Gram per Cage per Week</nciodm:CDISCSynonym>
                    <nciodm:CDISCDefinition>A unit of measure expressed in gram(s) per cage per period of time equal to seven days.</nciodm:CDISCDefinition>
                    <nciodm:PreferredTerm>Gram per Cage per Week</nciodm:PreferredTerm>
                </EnumeratedItem>
                <EnumeratedItem CodedValue="g/cm2" nciodm:ExtCodeID="C71201">
                    <nciodm:CDISCSynonym>Gram per Square Centimeter</nciodm:CDISCSynonym>
                    <nciodm:CDISCDefinition>A unit of area density defined as a spread rate at which one gram of a substance is spread over the area of one square centimeter. The unit is also used as a dose calculation unit.(NCI)</nciodm:CDISCDefinition>
                    <nciodm:PreferredTerm>Gram per Square Centimeter</nciodm:PreferredTerm>
                </EnumeratedItem>
                <EnumeratedItem CodedValue="g/day" nciodm:ExtCodeID="C67372">
                    <nciodm:CDISCSynonym>g/24h</nciodm:CDISCSynonym>
                    <nciodm:CDISCDefinition>A unit of mass flow rate equal to one gram per day.</nciodm:CDISCDefinition>
                    <nciodm:PreferredTerm>Gram per 24 Hours</nciodm:PreferredTerm>
                </EnumeratedItem>
                <EnumeratedItem CodedValue="g/dL" nciodm:ExtCodeID="C64783">
                    <nciodm:CDISCSynonym>Gram per Deciliter</nciodm:CDISCSynonym>
                    <nciodm:CDISCSynonym>g%</nciodm:CDISCSynonym>
                    <nciodm:CDISCDefinition>A unit of mass concentration defined as the concentration of one gram of a substance per unit volume of the mixture equal to one deciliter (100 milliliters). The concept also refers to the metric unit of mass density (volumic mass) defined as the density of substance which mass equal to one gram occupies the volume one deciliter.(NCI)</nciodm:CDISCDefinition>
                    <nciodm:PreferredTerm>Gram per Deciliter</nciodm:PreferredTerm>
                </EnumeratedItem>
                <EnumeratedItem CodedValue="g/g" nciodm:ExtCodeID="C70453">
                    <nciodm:CDISCSynonym>mg/mg</nciodm:CDISCSynonym>
                    <nciodm:CDISCDefinition>A unit of a mass fraction expressed as a number of grams of substance per gram of mixture.</nciodm:CDISCDefinition>
                    <nciodm:PreferredTerm>Gram per Gram</nciodm:PreferredTerm>
                </EnumeratedItem>
                <EnumeratedItem CodedValue="g/g/day" nciodm:ExtCodeID="C73720">
                    <nciodm:CDISCSynonym>Gram per Gram per Day</nciodm:CDISCSynonym>
                    <nciodm:CDISCDefinition>A unit of measure expressed in gram(s) per gram per period of time equal to twenty-four hours.</nciodm:CDISCDefinition>
                    <nciodm:PreferredTerm>Gram per Gram per Day</nciodm:PreferredTerm>
                </EnumeratedItem>
                <EnumeratedItem CodedValue="g/kg" nciodm:ExtCodeID="C69104">
                    <nciodm:CDISCSynonym>Gram per Kilogram</nciodm:CDISCSynonym>
                    <nciodm:CDISCSynonym>Milligram per Gram</nciodm:CDISCSynonym>
                    <nciodm:CDISCSynonym>mg/g</nciodm:CDISCSynonym>
                    <nciodm:CDISCSynonym>ug/mg</nciodm:CDISCSynonym>
                    <nciodm:CDISCDefinition>A unit of a mass fraction expressed as a number of grams of substance per kilogram of mixture. The unit is also used as a dose calculation unit.(NCI)</nciodm:CDISCDefinition>
                    <nciodm:PreferredTerm>Gram per Kilogram</nciodm:PreferredTerm>
                </EnumeratedItem>
                <EnumeratedItem CodedValue="g/kg/day" nciodm:ExtCodeID="C66975">
                    <nciodm:CDISCSynonym>Gram per Kilogram per Day</nciodm:CDISCSynonym>
                    <nciodm:CDISCSynonym>Milligram per Gram per Day</nciodm:CDISCSynonym>
                    <nciodm:CDISCSynonym>mg/g/day</nciodm:CDISCSynonym>
                    <nciodm:CDISCDefinition>A dose administration rate unit equal to the rate at which one gram of a product per kilogram of body mass is delivered or administered over the period of one day. (NCI)</nciodm:CDISCDefinition>
                    <nciodm:PreferredTerm>Gram per Kilogram per Day</nciodm:PreferredTerm>
                </EnumeratedItem>
                <EnumeratedItem CodedValue="g/L" nciodm:ExtCodeID="C42576">
                    <nciodm:CDISCSynonym>Gram per Liter</nciodm:CDISCSynonym>
                    <nciodm:CDISCSynonym>Kilogram per Cubic Meter</nciodm:CDISCSynonym>
                    <nciodm:CDISCSynonym>Microgram per Microliter</nciodm:CDISCSynonym>
                    <nciodm:CDISCSynonym>Milligram per Milliliter</nciodm:CDISCSynonym>
                    <nciodm:CDISCSynonym>g/L</nciodm:CDISCSynonym>
                    <nciodm:CDISCSynonym>kg/m3</nciodm:CDISCSynonym>
                    <nciodm:CDISCSynonym>mg/mL</nciodm:CDISCSynonym>
                    <nciodm:CDISCSynonym>ug/uL</nciodm:CDISCSynonym>
                    <nciodm:CDISCDefinition>A unit of concentration or mass density equal to one milligram of substance per milliliter of solution or one gram of substance per liter of solution.</nciodm:CDISCDefinition>
                    <nciodm:PreferredTerm>Kilogram per Cubic Meter</nciodm:PreferredTerm>
                </EnumeratedItem>
                <EnumeratedItem CodedValue="g/m2" nciodm:ExtCodeID="C67282">
                    <nciodm:CDISCSynonym>Gram per Square Meter</nciodm:CDISCSynonym>
                    <nciodm:CDISCDefinition>A unit of area density defined as a spread rate at which one gram of a substance is spread over the area of one square meter. It is equal to approximately 0.029 4935 ounce per square yard. Also used as a dose calculation unit.(NCI)</nciodm:CDISCDefinition>
                    <nciodm:PreferredTerm>Gram per Square Meter</nciodm:PreferredTerm>
                </EnumeratedItem>
                <EnumeratedItem CodedValue="g/m2/day" nciodm:ExtCodeID="C73722">
                    <nciodm:CDISCSynonym>Gram per Square Meter per Day</nciodm:CDISCSynonym>
                    <nciodm:CDISCDefinition>A dose calculation unit expressed in gram(s) per square meter per period of time equal to twenty-four hours.</nciodm:CDISCDefinition>
                    <nciodm:PreferredTerm>Gram per Square Meter per Day</nciodm:PreferredTerm>
                </EnumeratedItem>
                <EnumeratedItem CodedValue="g/mol" nciodm:ExtCodeID="C73721">
                    <nciodm:CDISCSynonym>mg/mmol</nciodm:CDISCSynonym>
                    <nciodm:CDISCDefinition>A unit of mass commonly used to express the molar mass of a substance in gram(s) per mole. (NCI)</nciodm:CDISCDefinition>
                    <nciodm:PreferredTerm>Gram per Mole</nciodm:PreferredTerm>
                </EnumeratedItem>
                <EnumeratedItem CodedValue="Gauss" nciodm:ExtCodeID="C68915">
                    <nciodm:CDISCSynonym>Gauss</nciodm:CDISCSynonym>
                    <nciodm:CDISCDefinition>The unit of magnetic flux density. A field of one Gauss exerts a force on a conductor, placed in the field of 0.1 dyne per Ampere of current per centimeter of conductor. One Gauss represents a magnetic flux of one Maxwell per square centimeter of cross-section perpendicular to the field. One Gauss equals 10-4 Tesla.(NCI)</nciodm:CDISCDefinition>
                    <nciodm:PreferredTerm>Gauss</nciodm:PreferredTerm>
                </EnumeratedItem>
                <EnumeratedItem CodedValue="GBq" nciodm:ExtCodeID="C70513">
                    <nciodm:CDISCSynonym>Gigabecquerel</nciodm:CDISCSynonym>
                    <nciodm:CDISCDefinition>A unit of radioactivity equal to one billion nuclear disintegrations or other nuclear transformations per second, or to 10E9 Becquerels.(NCI)</nciodm:CDISCDefinition>
                    <nciodm:PreferredTerm>Gigabecquerel</nciodm:PreferredTerm>
                </EnumeratedItem>
                <EnumeratedItem CodedValue="GBq/g" nciodm:ExtCodeID="C70525">
                    <nciodm:CDISCSynonym>Gigabecquerel per Gram</nciodm:CDISCSynonym>
                    <nciodm:CDISCSynonym>Kilobecquerel per Microgram</nciodm:CDISCSynonym>
                    <nciodm:CDISCSynonym>kBq/ug</nciodm:CDISCSynonym>
                    <nciodm:CDISCDefinition>A unit of specific radioactivity (massic activity) equal to activity of one gigabecquerel of the sample with total mass of one gram.(NCI)</nciodm:CDISCDefinition>
                    <nciodm:PreferredTerm>Gigabecquerel per Gram</nciodm:PreferredTerm>
                </EnumeratedItem>
                <EnumeratedItem CodedValue="GBq/mg" nciodm:ExtCodeID="C70527">
                    <nciodm:CDISCSynonym>Gigabecquerel per Milligram</nciodm:CDISCSynonym>
                    <nciodm:CDISCSynonym>MBq/mcg</nciodm:CDISCSynonym>
                    <nciodm:CDISCSynonym>MBq/ug</nciodm:CDISCSynonym>
                    <nciodm:CDISCSynonym>Megabecquerel per Microgram</nciodm:CDISCSynonym>
                    <nciodm:CDISCDefinition>A unit of specific radioactivity (massic activity) equal to activity of one gigabecquerel of the sample with total mass of one milligram.(NCI)</nciodm:CDISCDefinition>
                    <nciodm:PreferredTerm>Gigabecquerel per Milligram</nciodm:PreferredTerm>
                </EnumeratedItem>
                <EnumeratedItem CodedValue="GBq/ug" nciodm:ExtCodeID="C70526">
                    <nciodm:CDISCSynonym>GBq/mcg</nciodm:CDISCSynonym>
                    <nciodm:CDISCSynonym>Gigabecquerel per Microgram</nciodm:CDISCSynonym>
                    <nciodm:CDISCSynonym>MBq/ng</nciodm:CDISCSynonym>
                    <nciodm:CDISCSynonym>Megabecquerel per nanogram</nciodm:CDISCSynonym>
                    <nciodm:CDISCDefinition>A unit of specific radioactivity (massic activity) equal to activity of one gigabecquerel of the sample with total mass of one microgram.(NCI)</nciodm:CDISCDefinition>
                    <nciodm:PreferredTerm>Gigabecquerel per Microgram</nciodm:PreferredTerm>
                </EnumeratedItem>
                <EnumeratedItem CodedValue="GPL U" nciodm:ExtCodeID="C67347">
                    <nciodm:CDISCSynonym>Immunoglobin G Phospholipid Units</nciodm:CDISCSynonym>
                    <nciodm:CDISCSynonym>[GPL'U]</nciodm:CDISCSynonym>
                    <nciodm:CDISCDefinition>A unit for semiquantitative measurement of IgG autoantibodies to proteins associated with negatively charged phospholipids evaluated against an established reference standard. (NCI)</nciodm:CDISCDefinition>
                    <nciodm:PreferredTerm>IgG Phospholipid Unit</nciodm:PreferredTerm>
                </EnumeratedItem>
                <EnumeratedItem CodedValue="GPL U/mL" nciodm:ExtCodeID="C117971">
                    <nciodm:CDISCSynonym>Immunoglobin G Phospholipid Units per Milliliter</nciodm:CDISCSynonym>
                    <nciodm:CDISCDefinition>A unit for semiquantitative measurement of IgG autoantibodies to proteins associated with negatively charged phospholipids evaluated against an established reference standard, per unit of volume equal to one milliliter.</nciodm:CDISCDefinition>
                    <nciodm:PreferredTerm>Immunoglobin G Phospholipid Unit per Milliliter</nciodm:PreferredTerm>
                </EnumeratedItem>
                <EnumeratedItem CodedValue="grain" nciodm:ExtCodeID="C48497">
                    <nciodm:CDISCSynonym>Grain</nciodm:CDISCSynonym>
                    <nciodm:CDISCDefinition>A unit of mass derived from the weight of a grain and equal to one seven-thousandth of a pound, or 1/480 troy ounce, or 64.79891 milligrams. The original English grain unit based on the mass of a ripe grain barleycorn was larger the corresponding grain units of France and other European nations which were based on the weight of the smaller wheat grain.(NCI)</nciodm:CDISCDefinition>
                    <nciodm:PreferredTerm>Grain</nciodm:PreferredTerm>
                </EnumeratedItem>
                <EnumeratedItem CodedValue="Gravitational Unit" nciodm:ExtCodeID="C73772">
                    <nciodm:CDISCDefinition>A unit of acceleration expressed as a multiple of the force of gravity on earth (1 gravitational unit = 9.81m/s2).</nciodm:CDISCDefinition>
                    <nciodm:PreferredTerm>Unit of Gravity</nciodm:PreferredTerm>
                </EnumeratedItem>
                <EnumeratedItem CodedValue="gtt" nciodm:ExtCodeID="C48491">
                    <nciodm:CDISCSynonym>Drop</nciodm:CDISCSynonym>
                    <nciodm:CDISCDefinition>A unit of volume equal to 0.05 milliliter (20 drops/ml).(NCI)</nciodm:CDISCDefinition>
                    <nciodm:PreferredTerm>Metric Drop</nciodm:PreferredTerm>
                </EnumeratedItem>
                <EnumeratedItem CodedValue="Gy" nciodm:ExtCodeID="C18063">
                    <nciodm:CDISCSynonym>Gray</nciodm:CDISCSynonym>
                    <nciodm:CDISCDefinition>A unit of absorbed radiation dose. One gray is equal to an absorbed dose of one joule per kilogram of matter, or to 100 rads.(NCI)</nciodm:CDISCDefinition>
                    <nciodm:PreferredTerm>Gray</nciodm:PreferredTerm>
                </EnumeratedItem>
                <EnumeratedItem CodedValue="Henry" nciodm:ExtCodeID="C42558">
                    <nciodm:CDISCSynonym>Henry</nciodm:CDISCSynonym>
                    <nciodm:CDISCDefinition>A unit of electric inductance. A coil with an inductance of one Henry requires a flux of one Weber for each Ampere of induced current. If it is the current which changes, then the induced field will generate a potential difference within the coil: if the inductance is one Henry a current change of one Ampere per second generates a potential difference of one volt. The Henry is a large unit; inductances in practical circuits are measured in millihenrys or microhenrys.(NCI)</nciodm:CDISCDefinition>
                    <nciodm:PreferredTerm>Henry</nciodm:PreferredTerm>
                </EnumeratedItem>
                <EnumeratedItem CodedValue="HEP" nciodm:ExtCodeID="C116232">
                    <nciodm:CDISCSynonym>Histamine Equivalent Prick Unit</nciodm:CDISCSynonym>
                    <nciodm:CDISCDefinition>Unit of measure of potency of allergenic product expressed as a number of histamine equivalent prick units.</nciodm:CDISCDefinition>
                    <nciodm:PreferredTerm>Histamine Equivalent Prick Unit</nciodm:PreferredTerm>
                </EnumeratedItem>
                <EnumeratedItem CodedValue="HOMEOPATHIC DILUTION" nciodm:ExtCodeID="C48498">
                    <nciodm:CDISCSynonym>Homeopathic Dilution Unit</nciodm:CDISCSynonym>
                    <nciodm:CDISCDefinition>A dosing measurement based on the homeopathic dilution unit.(NCI)</nciodm:CDISCDefinition>
                    <nciodm:PreferredTerm>Homeopathic Dilution Unit</nciodm:PreferredTerm>
                </EnumeratedItem>
                <EnumeratedItem CodedValue="Hounsfield Unit" nciodm:ExtCodeID="C94908">
                    <nciodm:CDISCSynonym>HU</nciodm:CDISCSynonym>
                    <nciodm:CDISCDefinition>The unit of measure for the radiodensity of a substance. The radiodensity of distilled water at standard temperature and pressure is zero on the Hounsfield scale.</nciodm:CDISCDefinition>
                    <nciodm:PreferredTerm>Hounsfield Unit</nciodm:PreferredTerm>
                </EnumeratedItem>
                <EnumeratedItem CodedValue="HOURS" nciodm:ExtCodeID="C25529">
                    <nciodm:CDISCSynonym>Hours</nciodm:CDISCSynonym>
                    <nciodm:CDISCSynonym>h</nciodm:CDISCSynonym>
                    <nciodm:CDISCSynonym>hr</nciodm:CDISCSynonym>
                    <nciodm:CDISCDefinition>A unit of measurement of time equal to 60 minutes.</nciodm:CDISCDefinition>
                    <nciodm:PreferredTerm>Hour</nciodm:PreferredTerm>
                </EnumeratedItem>
                <EnumeratedItem CodedValue="hPa" nciodm:ExtCodeID="C105487">
                    <nciodm:CDISCSynonym>Hectopascal</nciodm:CDISCSynonym>
                    <nciodm:CDISCDefinition>A SI derived unit of pressure equivalent to one hundred pascals, 1 millibar or 0.0145 pounds per square inch.</nciodm:CDISCDefinition>
                    <nciodm:PreferredTerm>Hectopascal</nciodm:PreferredTerm>
                </EnumeratedItem>
                <EnumeratedItem CodedValue="HPF" nciodm:ExtCodeID="C67274">
                    <nciodm:CDISCSynonym>High Power Field</nciodm:CDISCSynonym>
                    <nciodm:CDISCDefinition>The area visible under the maximum magnification power of the objective being used in microscopy.(NCI)</nciodm:CDISCDefinition>
                    <nciodm:PreferredTerm>High Power Field</nciodm:PreferredTerm>
                </EnumeratedItem>
                <EnumeratedItem CodedValue="Hz" nciodm:ExtCodeID="C42545">
                    <nciodm:CDISCSynonym>Hertz</nciodm:CDISCSynonym>
                    <nciodm:CDISCDefinition>A unit of frequency equal to one cycle per second.(NCI)</nciodm:CDISCDefinition>
                    <nciodm:PreferredTerm>Hertz</nciodm:PreferredTerm>
                </EnumeratedItem>
                <EnumeratedItem CodedValue="IMPLANT" nciodm:ExtCodeID="C48499">
                    <nciodm:CDISCSynonym>Implant Dosing Unit</nciodm:CDISCSynonym>
                    <nciodm:CDISCDefinition>A dosing measurement based on the implant unit.(NCI)</nciodm:CDISCDefinition>
                    <nciodm:PreferredTerm>Implant Dosing Unit</nciodm:PreferredTerm>
                </EnumeratedItem>
                <EnumeratedItem CodedValue="in" nciodm:ExtCodeID="C48500">
                    <nciodm:CDISCSynonym>Inch</nciodm:CDISCSynonym>
                    <nciodm:CDISCDefinition>A traditional unit of length equal to 2.54 centimeters. (NCI)</nciodm:CDISCDefinition>
                    <nciodm:PreferredTerm>Inch</nciodm:PreferredTerm>
                </EnumeratedItem>
                <EnumeratedItem CodedValue="in2" nciodm:ExtCodeID="C68871">
                    <nciodm:CDISCSynonym>Square Inch</nciodm:CDISCSynonym>
                    <nciodm:CDISCDefinition>A unit of area equal to the area of a square with sides of one inch. It is equal to 6.4516 square centimeters.(NCI)</nciodm:CDISCDefinition>
                    <nciodm:PreferredTerm>Square Inch</nciodm:PreferredTerm>
                </EnumeratedItem>
                <EnumeratedItem CodedValue="INHALATION" nciodm:ExtCodeID="C48501">
                    <nciodm:CDISCSynonym>Inhalation Dosing Unit</nciodm:CDISCSynonym>
                    <nciodm:CDISCDefinition>A dosing measurement based on the inhalation unit.(NCI)</nciodm:CDISCDefinition>
                    <nciodm:PreferredTerm>Inhalation Dosing Unit</nciodm:PreferredTerm>
                </EnumeratedItem>
                <EnumeratedItem CodedValue="IU" nciodm:ExtCodeID="C48579">
                    <nciodm:CDISCSynonym>IE</nciodm:CDISCSynonym>
                    <nciodm:CDISCSynonym>International Unit</nciodm:CDISCSynonym>
                    <nciodm:CDISCDefinition>The unitage assigned by the WHO (World Health Organization) to International Biological Standards - substances, classed as biological according to the criteria provided by WHO Expert Committee on Biological Standardization, to enable the results of biological and immunological assay procedures to be expressed in the same way throughout the world. The definition of an international unit is generally arbitrary and technical, and has to be officially approved by the International Conference for Unification of Formulae.(NCI)</nciodm:CDISCDefinition>
                    <nciodm:PreferredTerm>International Unit</nciodm:PreferredTerm>
                </EnumeratedItem>
                <EnumeratedItem CodedValue="IU/day" nciodm:ExtCodeID="C85645">
                    <nciodm:CDISCSynonym>IU/d</nciodm:CDISCSynonym>
                    <nciodm:CDISCDefinition>International units per day.</nciodm:CDISCDefinition>
                    <nciodm:PreferredTerm>International Unit per Day</nciodm:PreferredTerm>
                </EnumeratedItem>
                <EnumeratedItem CodedValue="IU/dL" nciodm:ExtCodeID="C120848">
                    <nciodm:CDISCDefinition>Unit of arbitrary substance concentration (biologic activity concentration) defined as the concentration of one international unit per one deciliter of system volume.</nciodm:CDISCDefinition>
                    <nciodm:PreferredTerm>International Unit per Deciliter</nciodm:PreferredTerm>
                </EnumeratedItem>
                <EnumeratedItem CodedValue="IU/g" nciodm:ExtCodeID="C70493">
                    <nciodm:CDISCSynonym>International Unit per Gram</nciodm:CDISCSynonym>
                    <nciodm:CDISCDefinition>A unit of measure of quantity of substance per unit mass, expressed in terms of the International Unit per grams.(NCI)</nciodm:CDISCDefinition>
                    <nciodm:PreferredTerm>International Unit per Gram</nciodm:PreferredTerm>
                </EnumeratedItem>
                <EnumeratedItem CodedValue="IU/g Hb" nciodm:ExtCodeID="C122207">
                    <nciodm:CDISCDefinition>A unit of concentration (biologic activity) equal to one international unit of substance per gram of hemoglobin.</nciodm:CDISCDefinition>
                    <nciodm:PreferredTerm>International Unit per Gram Hemoglobin</nciodm:PreferredTerm>
                </EnumeratedItem>
                <EnumeratedItem CodedValue="IU/kg" nciodm:ExtCodeID="C67379">
                    <nciodm:CDISCSynonym>International Unit per Kilogram</nciodm:CDISCSynonym>
                    <nciodm:CDISCDefinition>An arbitrary unit of substance content expressed in international units of biological activity per one kilogram of mass of the system. It is also used as a dose calculation unit expressed in international units of biological activity per one kilogram of body mass.(NCI)</nciodm:CDISCDefinition>
                    <nciodm:PreferredTerm>International Unit per Kilogram</nciodm:PreferredTerm>
                </EnumeratedItem>
                <EnumeratedItem CodedValue="IU/kg/h" nciodm:ExtCodeID="C71209">
                    <nciodm:CDISCSynonym>International units per Kilogram per Hour</nciodm:CDISCSynonym>
                    <nciodm:CDISCDefinition>A dose calculation unit equal to one international unit (an arbitrary unit of biological activity) of a product per one kilogram of body mass administered per unit of time equal to one hour.(NCI)</nciodm:CDISCDefinition>
                    <nciodm:PreferredTerm>International Unit per Kilogram per Hour</nciodm:PreferredTerm>
                </EnumeratedItem>
                <EnumeratedItem CodedValue="IU/L" nciodm:ExtCodeID="C67376">
                    <nciodm:CDISCSynonym>IE/L</nciodm:CDISCSynonym>
                    <nciodm:CDISCSynonym>IU/L</nciodm:CDISCSynonym>
                    <nciodm:CDISCSynonym>International Unit per Liter</nciodm:CDISCSynonym>
                    <nciodm:CDISCSynonym>mIU/mL</nciodm:CDISCSynonym>
                    <nciodm:CDISCDefinition>A unit of concentration (biologic activity) equal to one milli-international unit of substance per milliliter of solution or one international unit of substance per liter of solution.</nciodm:CDISCDefinition>
                    <nciodm:PreferredTerm>International Unit per Liter</nciodm:PreferredTerm>
                </EnumeratedItem>
                <EnumeratedItem CodedValue="IU/mg" nciodm:ExtCodeID="C67380">
                    <nciodm:CDISCSynonym>International Unit per Milligram</nciodm:CDISCSynonym>
                    <nciodm:CDISCDefinition>A unit of measure of quantity of substance per unit mass, expressed in terms of international units per milligram.</nciodm:CDISCDefinition>
                    <nciodm:PreferredTerm>International Unit per Milligram</nciodm:PreferredTerm>
                </EnumeratedItem>
                <EnumeratedItem CodedValue="IU/mL" nciodm:ExtCodeID="C67377">
                    <nciodm:CDISCSynonym>IE/mL</nciodm:CDISCSynonym>
                    <nciodm:CDISCSynonym>International Unit per Milliliter</nciodm:CDISCSynonym>
                    <nciodm:CDISCSynonym>Kilo International Unit per Liter</nciodm:CDISCSynonym>
                    <nciodm:CDISCSynonym>kIU/L</nciodm:CDISCSynonym>
                    <nciodm:CDISCDefinition>A unit of concentration (biologic activity) equal to one international unit of substance per milliliter of solution.</nciodm:CDISCDefinition>
                    <nciodm:PreferredTerm>International Unit per Milliliter</nciodm:PreferredTerm>
                </EnumeratedItem>
                <EnumeratedItem CodedValue="IU/mmol" nciodm:ExtCodeID="C122208">
                    <nciodm:CDISCDefinition>A unit of concentration (biologic activity) equal to one international unit of substance per millimole of substance.</nciodm:CDISCDefinition>
                    <nciodm:PreferredTerm>International Unit per Millimole</nciodm:PreferredTerm>
                </EnumeratedItem>
                <EnumeratedItem CodedValue="JAR" nciodm:ExtCodeID="C48502">
                    <nciodm:CDISCSynonym>Jar Dosing Unit</nciodm:CDISCSynonym>
                    <nciodm:CDISCDefinition>A dosing measurement based on the jar unit.(NCI)</nciodm:CDISCDefinition>
                    <nciodm:PreferredTerm>Jar Dosing Unit</nciodm:PreferredTerm>
                </EnumeratedItem>
                <EnumeratedItem CodedValue="Joule" nciodm:ExtCodeID="C42548">
                    <nciodm:CDISCSynonym>Joule</nciodm:CDISCSynonym>
                    <nciodm:CDISCDefinition>A unit of electrical, mechanical, and thermal energy (as well as work and quantity of heat), equal to the work done when the point of application of a force of one Newton is displaced through a distance of one meter in the direction of the force or the work done when a current of one Ampere passes through a resistance of one ohm for one second. One joule is equal to 0.23889 gram-calorie (mean).(NCI)</nciodm:CDISCDefinition>
                    <nciodm:PreferredTerm>Joule</nciodm:PreferredTerm>
                </EnumeratedItem>
                <EnumeratedItem CodedValue="ka_u/dL" nciodm:ExtCodeID="C122209">
                    <nciodm:CDISCDefinition>A unit of phosphatase concentration that can free one milligram of phenol from disodium phenylphosphate at standard conditions, per unit volume of the mixture equal to one deciliter. (NCI)</nciodm:CDISCDefinition>
                    <nciodm:PreferredTerm>King-Armstrong Unit per Deciliter</nciodm:PreferredTerm>
                </EnumeratedItem>
                <EnumeratedItem CodedValue="KALLIKREIN INHIBITOR UNIT" nciodm:ExtCodeID="C48503">
                    <nciodm:CDISCSynonym>Kallikrein Inhibitor Unit</nciodm:CDISCSynonym>
                    <nciodm:CDISCDefinition>A dosing measurement based on the Kallikrein inhibitor unit.(NCI)</nciodm:CDISCDefinition>
                    <nciodm:PreferredTerm>Kallikrein Inhibitor Unit</nciodm:PreferredTerm>
                </EnumeratedItem>
                <EnumeratedItem CodedValue="kat" nciodm:ExtCodeID="C42566">
                    <nciodm:CDISCSynonym>Katal</nciodm:CDISCSynonym>
                    <nciodm:CDISCDefinition>A unit for measuring catalytic (e.g. enzymatic) activity, the ability of the compound to accelerate the chemical reaction by providing a lower energy pathway between the reactants and the products. One katal is that catalytic activity which will raise the rate of reaction by one mole per second in a specified assay system. When the katal is used, the measurand should be specified by reference to the measurement procedure; the measurement procedure must identify the indicator reaction. The katal is not used to express a rate of reaction itself, which should be expressed in moles per second.(NCI)</nciodm:CDISCDefinition>
                    <nciodm:PreferredTerm>Katal</nciodm:PreferredTerm>
                </EnumeratedItem>
                <EnumeratedItem CodedValue="kBq" nciodm:ExtCodeID="C70511">
                    <nciodm:CDISCSynonym>Kilobecquerel</nciodm:CDISCSynonym>
                    <nciodm:CDISCDefinition>A unit of radioactivity equal to one thousand nuclear disintegrations or other nuclear transformations per second, or to 10E3 Becquerels.(NCI)</nciodm:CDISCDefinition>
                    <nciodm:PreferredTerm>Kilobecquerel</nciodm:PreferredTerm>
                </EnumeratedItem>
                <EnumeratedItem CodedValue="kBq/uL" nciodm:ExtCodeID="C71168">
                    <nciodm:CDISCSynonym>GBq/L</nciodm:CDISCSynonym>
                    <nciodm:CDISCSynonym>Gigabecquerel per Liter</nciodm:CDISCSynonym>
                    <nciodm:CDISCSynonym>Kilobecquerel per Microliter</nciodm:CDISCSynonym>
                    <nciodm:CDISCSynonym>MBq/mL</nciodm:CDISCSynonym>
                    <nciodm:CDISCSynonym>Megabecquerel per Milliliter</nciodm:CDISCSynonym>
                    <nciodm:CDISCDefinition>A unit of volumetric radioactivity concentration defined as a concentration of a radionuclide with an activity equal to one thousand Becquerels per unit volume equal to one millionth of a liter.(NCI)</nciodm:CDISCDefinition>
                    <nciodm:PreferredTerm>Kilobecquerel per Microliter</nciodm:PreferredTerm>
                </EnumeratedItem>
                <EnumeratedItem CodedValue="kcal" nciodm:ExtCodeID="C67194">
                    <nciodm:CDISCSynonym>Kilogram-Calorie</nciodm:CDISCSynonym>
                    <nciodm:CDISCDefinition>A unit of energy defined as the amount of heat required to raise the temperature of one kilogram of pure water by one degree Centigrade under standard conditions (the specific heat of the water at 15 degrees Celsius and the constant pressure of 101.325 kilopascals or one atm being defined as unity), equal to approximately 4.1855 kJ. It is also is used by nutritionists in measuring the energy-producing potential of food as a unit of potential energy contained by a substance, which can be liberated when the material is oxidized, usually by combustion in the presence of oxygen.(NCI)</nciodm:CDISCDefinition>
                    <nciodm:PreferredTerm>Calorie</nciodm:PreferredTerm>
                </EnumeratedItem>
                <EnumeratedItem CodedValue="kDa" nciodm:ExtCodeID="C105491">
                    <nciodm:CDISCSynonym>Kilodalton</nciodm:CDISCSynonym>
                    <nciodm:CDISCSynonym>Kilounified Atomic Mass Unit</nciodm:CDISCSynonym>
                    <nciodm:CDISCSynonym>ku</nciodm:CDISCSynonym>
                    <nciodm:CDISCDefinition>A mass unit equal to one thousand daltons.</nciodm:CDISCDefinition>
                    <nciodm:PreferredTerm>Kilodalton</nciodm:PreferredTerm>
                </EnumeratedItem>
                <EnumeratedItem CodedValue="kg" nciodm:ExtCodeID="C28252">
                    <nciodm:CDISCSynonym>Kilogram</nciodm:CDISCSynonym>
                    <nciodm:CDISCDefinition>The base unit of mass in the International System of Units (SI) equal to the mass of the international prototype kilogram, a platinum-iridium cylinder in the custody of the International Bureau of Weights and Measures.</nciodm:CDISCDefinition>
                    <nciodm:PreferredTerm>Kilogram</nciodm:PreferredTerm>
                </EnumeratedItem>
                <EnumeratedItem CodedValue="kg/cm" nciodm:ExtCodeID="C120849">
                    <nciodm:CDISCDefinition>A unit of measure equal to kilograms per length unit equal to one centimeter.</nciodm:CDISCDefinition>
                    <nciodm:PreferredTerm>Kilogram per Centimeter</nciodm:PreferredTerm>
                </EnumeratedItem>
                <EnumeratedItem CodedValue="kg/cm2" nciodm:ExtCodeID="C69094">
                    <nciodm:CDISCSynonym>Kilogram per Square Centimeter</nciodm:CDISCSynonym>
                    <nciodm:CDISCDefinition>A unit of spread rate of a substance by mass expressed in kilograms per area unit equal to one square centimeter, used also as a measure of area density and as a dose calculation unit.(NCI)</nciodm:CDISCDefinition>
                    <nciodm:PreferredTerm>Kilogram per Square Centimeter</nciodm:PreferredTerm>
                </EnumeratedItem>
                <EnumeratedItem CodedValue="kg/L" nciodm:ExtCodeID="C64566">
                    <nciodm:CDISCSynonym>Gram per Milliliter</nciodm:CDISCSynonym>
                    <nciodm:CDISCSynonym>Kilogram per Liter</nciodm:CDISCSynonym>
                    <nciodm:CDISCSynonym>g/mL</nciodm:CDISCSynonym>
                    <nciodm:CDISCSynonym>gram/mL</nciodm:CDISCSynonym>
                    <nciodm:CDISCSynonym>kg/L</nciodm:CDISCSynonym>
                    <nciodm:CDISCSynonym>mg/uL</nciodm:CDISCSynonym>
                    <nciodm:CDISCDefinition>A unit of concentration or mass density equal to one gram of substance per milliliter of solution or one kilogram of substance per liter of solution.</nciodm:CDISCDefinition>
                    <nciodm:PreferredTerm>Kilogram per Liter</nciodm:PreferredTerm>
                </EnumeratedItem>
                <EnumeratedItem CodedValue="kg/m2" nciodm:ExtCodeID="C49671">
                    <nciodm:CDISCSynonym>Kilogram per Square Meter</nciodm:CDISCSynonym>
                    <nciodm:CDISCDefinition>A unit expressed as kilogram of mass per square meter of area.(NCI)</nciodm:CDISCDefinition>
                    <nciodm:PreferredTerm>Kilogram per Square Meter</nciodm:PreferredTerm>
                </EnumeratedItem>
                <EnumeratedItem CodedValue="kg/mol" nciodm:ExtCodeID="C122210">
                    <nciodm:CDISCSynonym>g/mmol</nciodm:CDISCSynonym>
                    <nciodm:CDISCDefinition>A unit of mass commonly used to express the molar mass of a substance in kilogram(s) per mole.</nciodm:CDISCDefinition>
                    <nciodm:PreferredTerm>Kilogram per Mole</nciodm:PreferredTerm>
                </EnumeratedItem>
                <EnumeratedItem CodedValue="kHz" nciodm:ExtCodeID="C67279">
                    <nciodm:CDISCSynonym>kilohertz</nciodm:CDISCSynonym>
                    <nciodm:CDISCDefinition>A unit of measure denoting the frequency equal to 1000 cycles per second meaning e.g. that the cylical waveform changes from one state to the other (from one polarity to the other) 1000 times per second. (NCI)</nciodm:CDISCDefinition>
                    <nciodm:PreferredTerm>Kilohertz</nciodm:PreferredTerm>
                </EnumeratedItem>
                <EnumeratedItem CodedValue="KIT" nciodm:ExtCodeID="C48504">
                    <nciodm:CDISCSynonym>Kit Dosing Unit</nciodm:CDISCSynonym>
                    <nciodm:CDISCDefinition>A dosing measurement based on the kit unit.(NCI)</nciodm:CDISCDefinition>
                    <nciodm:PreferredTerm>Kit Dosing Unit</nciodm:PreferredTerm>
                </EnumeratedItem>
                <EnumeratedItem CodedValue="kIU" nciodm:ExtCodeID="C70492">
                    <nciodm:CDISCSynonym>Kilo International Unit</nciodm:CDISCSynonym>
                    <nciodm:CDISCDefinition>A unit equal to one thousand international units.(NCI)</nciodm:CDISCDefinition>
                    <nciodm:PreferredTerm>Kilointernational Unit</nciodm:PreferredTerm>
                </EnumeratedItem>
                <EnumeratedItem CodedValue="km" nciodm:ExtCodeID="C71177">
                    <nciodm:CDISCSynonym>Kilometer</nciodm:CDISCSynonym>
                    <nciodm:CDISCDefinition>A unit of distance equal to 1000 meters, 0.621 miles, 1094 yards, or 3281 feet.(NCI)</nciodm:CDISCDefinition>
                    <nciodm:PreferredTerm>Kilometer</nciodm:PreferredTerm>
                </EnumeratedItem>
                <EnumeratedItem CodedValue="km/h" nciodm:ExtCodeID="C71203">
                    <nciodm:CDISCSynonym>Kilometer Per Hour</nciodm:CDISCSynonym>
                    <nciodm:CDISCDefinition>A unit of both speed (scalar) and velocity (vector), defined as the distance of one thousand meters travelled per unit time equal to one hour.(NCI)</nciodm:CDISCDefinition>
                    <nciodm:PreferredTerm>Kilometer per Hour</nciodm:PreferredTerm>
                </EnumeratedItem>
                <EnumeratedItem CodedValue="kN/cm2" nciodm:ExtCodeID="C92615">
                    <nciodm:CDISCSynonym>Kilonewton per Centimeter Squared</nciodm:CDISCSynonym>
                    <nciodm:CDISCSynonym>kdyn/cm2</nciodm:CDISCSynonym>
                    <nciodm:CDISCDefinition>The kilonewton per centimeter squared is an SI derived unit of pressure; one newton is computed as the force necessary to accelerate a mass of one gram at the rate of one centimeter per second squared. One kilonewton per centimeter squared is descriptive of the amount of force exerted in a particular area. This measurement is frequently used when describing conditions of cellular movement. (NCI)</nciodm:CDISCDefinition>
                    <nciodm:PreferredTerm>Kilonewton per Centimeter Squared</nciodm:PreferredTerm>
                </EnumeratedItem>
                <EnumeratedItem CodedValue="kPa" nciodm:ExtCodeID="C67284">
                    <nciodm:CDISCSynonym>Kilopascal</nciodm:CDISCSynonym>
                    <nciodm:CDISCDefinition>A SI derived unit of pressure equivalent to 1000 newtons per square meter or 10000 bars or to 0.145 pound per square inch. (NCI)</nciodm:CDISCDefinition>
                    <nciodm:PreferredTerm>Kilopascal</nciodm:PreferredTerm>
                </EnumeratedItem>
                <EnumeratedItem CodedValue="kPa/L/sec" nciodm:ExtCodeID="C105492">
                    <nciodm:CDISCSynonym>Pa/mL/sec</nciodm:CDISCSynonym>
                    <nciodm:CDISCDefinition>A unit of resistance equal to the number of kilopascals per unit of volume equal to one liter per unit of time equal to one second. (NCI)</nciodm:CDISCDefinition>
                    <nciodm:PreferredTerm>Kilopascal Per Liter Per Second</nciodm:PreferredTerm>
                </EnumeratedItem>
                <EnumeratedItem CodedValue="ks" nciodm:ExtCodeID="C105493">
                    <nciodm:CDISCSynonym>10^3 sec</nciodm:CDISCSynonym>
                    <nciodm:CDISCSynonym>Kilosecond</nciodm:CDISCSynonym>
                    <nciodm:CDISCSynonym>ksec</nciodm:CDISCSynonym>
                    <nciodm:CDISCDefinition>A unit of time equal to one thousand seconds (10E3 seconds). (NCI)</nciodm:CDISCDefinition>
                    <nciodm:PreferredTerm>Kilosecond</nciodm:PreferredTerm>
                </EnumeratedItem>
                <EnumeratedItem CodedValue="kUSP" nciodm:ExtCodeID="C71202">
                    <nciodm:CDISCSynonym>Kilo United States Pharmacopoeia Unit</nciodm:CDISCSynonym>
                    <nciodm:CDISCDefinition>A unit of potency equal to one thousand US Pharmacopoeia Units.(NCI)</nciodm:CDISCDefinition>
                    <nciodm:PreferredTerm>Kilo United States Pharmacopeia Unit</nciodm:PreferredTerm>
                </EnumeratedItem>
                <EnumeratedItem CodedValue="L" nciodm:ExtCodeID="C48505">
                    <nciodm:CDISCSynonym>Liter</nciodm:CDISCSynonym>
                    <nciodm:CDISCDefinition>A unit of volume equal to a cubic decimeter, or one thousandth of cubic meter, or 1000 cubic centimeters, or approximately 61.023 744 cubic inches.(NCI)</nciodm:CDISCDefinition>
                    <nciodm:PreferredTerm>Liter</nciodm:PreferredTerm>
                </EnumeratedItem>
                <EnumeratedItem CodedValue="L/day" nciodm:ExtCodeID="C69110">
                    <nciodm:CDISCDefinition>A unit of flow rate, defined as a rate of one liter per day.</nciodm:CDISCDefinition>
                    <nciodm:PreferredTerm>Liter per Day</nciodm:PreferredTerm>
                </EnumeratedItem>
                <EnumeratedItem CodedValue="L/h" nciodm:ExtCodeID="C69160">
                    <nciodm:CDISCDefinition>A unit of flow rate, defined as a rate of one liter per hour.</nciodm:CDISCDefinition>
                    <nciodm:PreferredTerm>Liter per Hour</nciodm:PreferredTerm>
                </EnumeratedItem>
                <EnumeratedItem CodedValue="L/h/m2" nciodm:ExtCodeID="C105494">
                    <nciodm:CDISCSynonym>(L/h)/m2</nciodm:CDISCSynonym>
                    <nciodm:CDISCSynonym>L/h/m2</nciodm:CDISCSynonym>
                    <nciodm:CDISCDefinition>Liters per hour (flow rate), divided by meters squared (surface area).</nciodm:CDISCDefinition>
                    <nciodm:PreferredTerm>Liter Per Hour Per Square Meter</nciodm:PreferredTerm>
                </EnumeratedItem>
                <EnumeratedItem CodedValue="L/kg" nciodm:ExtCodeID="C73725">
                    <nciodm:CDISCSynonym>L/kg</nciodm:CDISCSynonym>
                    <nciodm:CDISCSynonym>mL/g</nciodm:CDISCSynonym>
                    <nciodm:CDISCDefinition>Liters (volume) divided by kilograms (weight) or milliliters (volume), divided by grams (weight).</nciodm:CDISCDefinition>
                    <nciodm:PreferredTerm>Liter per Kilogram</nciodm:PreferredTerm>
                </EnumeratedItem>
                <EnumeratedItem CodedValue="L/L" nciodm:ExtCodeID="C105495">
                    <nciodm:CDISCSynonym>Liter per Liter</nciodm:CDISCSynonym>
                    <nciodm:CDISCSynonym>dL/dL</nciodm:CDISCSynonym>
                    <nciodm:CDISCSynonym>mL/mL</nciodm:CDISCSynonym>
                    <nciodm:CDISCSynonym>uL/uL</nciodm:CDISCSynonym>
                    <nciodm:CDISCDefinition>A unit of volume concentration equal to the number of liters per unit of volume equal to one liter.</nciodm:CDISCDefinition>
                    <nciodm:PreferredTerm>Liter Per Liter</nciodm:PreferredTerm>
                </EnumeratedItem>
                <EnumeratedItem CodedValue="L/min" nciodm:ExtCodeID="C67388">
                    <nciodm:CDISCDefinition>A unit of flow rate, defined as a rate of one liter per minute.</nciodm:CDISCDefinition>
                    <nciodm:PreferredTerm>Liter per Minute</nciodm:PreferredTerm>
                </EnumeratedItem>
                <EnumeratedItem CodedValue="L/min/m2" nciodm:ExtCodeID="C105496">
                    <nciodm:CDISCSynonym>(L/min)/m2</nciodm:CDISCSynonym>
                    <nciodm:CDISCSynonym>L/min/m2</nciodm:CDISCSynonym>
                    <nciodm:CDISCDefinition>Liters per minute (flow rate), divided by meters squared (surface area).</nciodm:CDISCDefinition>
                    <nciodm:PreferredTerm>Liter Per Minute Per Square Meter</nciodm:PreferredTerm>
                </EnumeratedItem>
                <EnumeratedItem CodedValue="L/s" nciodm:ExtCodeID="C67390">
                    <nciodm:CDISCSynonym>L/sec</nciodm:CDISCSynonym>
                    <nciodm:CDISCDefinition>Liters per second.</nciodm:CDISCDefinition>
                    <nciodm:PreferredTerm>Liter per Second</nciodm:PreferredTerm>
                </EnumeratedItem>
                <EnumeratedItem CodedValue="LB" nciodm:ExtCodeID="C48531">
                    <nciodm:CDISCSynonym>Pound</nciodm:CDISCSynonym>
                    <nciodm:CDISCDefinition>A traditional unit of mass. By international agreement, one avoirdupois pound is equal to exactly 0.453 592 37 kilogram, 16 ounces, or 1.215 28 troy pounds. (NCI)</nciodm:CDISCDefinition>
                    <nciodm:PreferredTerm>Pound</nciodm:PreferredTerm>
                </EnumeratedItem>
                <EnumeratedItem CodedValue="lm" nciodm:ExtCodeID="C42560">
                    <nciodm:CDISCSynonym>Lumen</nciodm:CDISCSynonym>
                    <nciodm:CDISCDefinition>A unit of luminous flux. It is the amount of light that falls on a unit area at unit distance from a source of one candela.(NCI)</nciodm:CDISCDefinition>
                    <nciodm:PreferredTerm>Lumen</nciodm:PreferredTerm>
                </EnumeratedItem>
                <EnumeratedItem CodedValue="log EID 50/dose" nciodm:ExtCodeID="C70480">
                    <nciodm:CDISCSynonym>Log10 50 Percent Embryo Infective Dose per Dose</nciodm:CDISCSynonym>
                    <nciodm:CDISCDefinition>A logarithmic-scale (base 10) potency unit for measuring infectious activity of a biologic product or infectious agent preparation equal to the potency at which one dose of infectious material contains one 50 percent embryo infective dose.(NCI)</nciodm:CDISCDefinition>
                    <nciodm:PreferredTerm>Log10 50 Percent Embryo Infective Dose per Dose</nciodm:PreferredTerm>
                </EnumeratedItem>
                <EnumeratedItem CodedValue="log10 CCID 50/dose" nciodm:ExtCodeID="C70485">
                    <nciodm:CDISCSynonym>Log10 50 Percent Cell Culture Infective Dose per Dose</nciodm:CDISCSynonym>
                    <nciodm:CDISCDefinition>A logarithmic-scale (base 10) potency unit for measuring infectious activity of a biologic product or infectious agent preparation equal to the potency at which one dose of infectious material contains one 50 percent cell culture infective dose.(NCI)</nciodm:CDISCDefinition>
                    <nciodm:PreferredTerm>Log10 50 Percent Cell Culture Infective Dose per Dose</nciodm:PreferredTerm>
                </EnumeratedItem>
                <EnumeratedItem CodedValue="log10 CFU/g" nciodm:ExtCodeID="C102658">
                    <nciodm:CDISCDefinition>A logarithmic-scale (base 10) unit for measuring colony forming units per unit of mass equal to one gram.</nciodm:CDISCDefinition>
                    <nciodm:PreferredTerm>Log10 Colony Forming Units per Gram</nciodm:PreferredTerm>
                </EnumeratedItem>
                <EnumeratedItem CodedValue="log10 CFU/mL" nciodm:ExtCodeID="C102659">
                    <nciodm:CDISCDefinition>A logarithmic-scale (base 10) unit for measuring colony forming units per unit of volume equal to one milliliter.</nciodm:CDISCDefinition>
                    <nciodm:PreferredTerm>Log10 Colony Forming Units per Milliliter</nciodm:PreferredTerm>
                </EnumeratedItem>
                <EnumeratedItem CodedValue="log10 copies/mL" nciodm:ExtCodeID="C117972">
                    <nciodm:CDISCDefinition>A logarithmic-scale (base 10) unit for measuring copies per unit of volume equal to one milliliter.</nciodm:CDISCDefinition>
                    <nciodm:PreferredTerm>Log10 Copies per Milliliter</nciodm:PreferredTerm>
                </EnumeratedItem>
                <EnumeratedItem CodedValue="Log10 ELISA unit" nciodm:ExtCodeID="C68878">
                    <nciodm:CDISCSynonym>Log10 Enzyme-Linked Immunosorbent Assay Unit</nciodm:CDISCSynonym>
                    <nciodm:CDISCDefinition>A logarithmic-scale (base 10) unit for measuring concentration and/or reactivity of a test substance (an antigen or antibody of interest) as defined in the literature reference for the particular quantitative enzyme-linked immunosorbent assay method.(NCI)</nciodm:CDISCDefinition>
                    <nciodm:PreferredTerm>Log10 Enzyme-Linked Immunosorbent Assay Unit</nciodm:PreferredTerm>
                </EnumeratedItem>
                <EnumeratedItem CodedValue="Log10 ELISA unit/dose" nciodm:ExtCodeID="C68879">
                    <nciodm:CDISCSynonym>Log10 Enzyme-Linked Immunosorbent Assay Unit per Dose</nciodm:CDISCSynonym>
                    <nciodm:CDISCDefinition>A logarithmic-scale (base 10) unit for measuring potency of immunologically active substance in a product determined as reactivity in a quantitative immunoassay for particular antigen or antibody and expressed per quantity of preparation used as a single dose.(NCI)</nciodm:CDISCDefinition>
                    <nciodm:PreferredTerm>Log10 Enzyme-Linked Immunosorbent Assay Unit per Dose</nciodm:PreferredTerm>
                </EnumeratedItem>
                <EnumeratedItem CodedValue="log10 IU/mL" nciodm:ExtCodeID="C116238">
                    <nciodm:CDISCDefinition>A logarithmic-scale (base 10) unit for measuring international units per unit of volume equal to one milliliter.</nciodm:CDISCDefinition>
                    <nciodm:PreferredTerm>Log10 International Units per Milliliter</nciodm:PreferredTerm>
                </EnumeratedItem>
                <EnumeratedItem CodedValue="log10 TCID 50/dose" nciodm:ExtCodeID="C70489">
                    <nciodm:CDISCSynonym>Log10 50 Percent Tissue Culture Infective Dose per Dose</nciodm:CDISCSynonym>
                    <nciodm:CDISCDefinition>A logarithmic-scale (base 10) potency unit for measuring infectious activity of a biologic product or infectious agent preparation equal to the potency at which one dose of infectious material contains one 50 percent tissue culture infective dose.(NCI)</nciodm:CDISCDefinition>
                    <nciodm:PreferredTerm>Log10 50 Percent Tissue Culture Infective Dose per Dose</nciodm:PreferredTerm>
                </EnumeratedItem>
                <EnumeratedItem CodedValue="LOZENGE" nciodm:ExtCodeID="C48506">
                    <nciodm:CDISCSynonym>Lozenge Dosing Unit</nciodm:CDISCSynonym>
                    <nciodm:CDISCDefinition>A dosing measurement based on the lozenge unit.(NCI)</nciodm:CDISCDefinition>
                    <nciodm:PreferredTerm>Lozenge Dosing Unit</nciodm:PreferredTerm>
                </EnumeratedItem>
                <EnumeratedItem CodedValue="LPF" nciodm:ExtCodeID="C67307">
                    <nciodm:CDISCSynonym>Low Power Field</nciodm:CDISCSynonym>
                    <nciodm:CDISCDefinition>The area visible in one view field of the microscope under the low magnification of the objective being used in microscopy.(NCI)</nciodm:CDISCDefinition>
                    <nciodm:PreferredTerm>Low Power Field</nciodm:PreferredTerm>
                </EnumeratedItem>
                <EnumeratedItem CodedValue="lx" nciodm:ExtCodeID="C42561">
                    <nciodm:CDISCSynonym>Lux</nciodm:CDISCSynonym>
                    <nciodm:CDISCDefinition>A unit of illuminance equal to the direct illumination on a surface that is everywhere one meter from a uniform point source of one candela; a unit of illuminance that is equal to one lumen per square meter.(NCI)</nciodm:CDISCDefinition>
                    <nciodm:PreferredTerm>Lux</nciodm:PreferredTerm>
                </EnumeratedItem>
                <EnumeratedItem CodedValue="m" nciodm:ExtCodeID="C41139">
                    <nciodm:CDISCSynonym>Meter</nciodm:CDISCSynonym>
                    <nciodm:CDISCDefinition>A meter is defined as the length of the path traveled by light in a vacuum during a time interval of 1/299 792 458 of a second and is equal to 1.093 61 yards.(NCI)</nciodm:CDISCDefinition>
                    <nciodm:PreferredTerm>Meter</nciodm:PreferredTerm>
                </EnumeratedItem>
                <EnumeratedItem CodedValue="m/sec" nciodm:ExtCodeID="C42571">
                    <nciodm:CDISCSynonym>Meter Per Second</nciodm:CDISCSynonym>
                    <nciodm:CDISCDefinition>A unit of both speed (scalar) and velocity (vector), defined as the distance of one meter travelled per unit time equal to one second.(NCI)</nciodm:CDISCDefinition>
                    <nciodm:PreferredTerm>Meter per Second</nciodm:PreferredTerm>
                </EnumeratedItem>
                <EnumeratedItem CodedValue="m/sec2" nciodm:ExtCodeID="C42572">
                    <nciodm:CDISCDefinition>A unit of acceleration equal to one meter per unit of time equal to one second squared.</nciodm:CDISCDefinition>
                    <nciodm:PreferredTerm>Meter per Second Squared</nciodm:PreferredTerm>
                </EnumeratedItem>
                <EnumeratedItem CodedValue="m2" nciodm:ExtCodeID="C42569">
                    <nciodm:CDISCSynonym>Square Meter</nciodm:CDISCSynonym>
                    <nciodm:CDISCDefinition>The standard derived unit of area in the International System of Units (SI) equal to the area of a square whose sides are one meter long.</nciodm:CDISCDefinition>
                    <nciodm:PreferredTerm>Square Meter</nciodm:PreferredTerm>
                </EnumeratedItem>
                <EnumeratedItem CodedValue="m3" nciodm:ExtCodeID="C42570">
                    <nciodm:CDISCSynonym>Cubic Meter</nciodm:CDISCSynonym>
                    <nciodm:CDISCDefinition>A unit of volume or capacity equal to the volume of a cube with edges one meter in length. It is equal to 1,000 liters; 1,000 cubic decimeters; 10(E6) cubic centimeters; 25.3 cubic feet; 6.29 barrels.(NCI)</nciodm:CDISCDefinition>
                    <nciodm:PreferredTerm>Cubic Meter</nciodm:PreferredTerm>
                </EnumeratedItem>
                <EnumeratedItem CodedValue="mAnson U/mL" nciodm:ExtCodeID="C122211">
                    <nciodm:CDISCDefinition>A unit of enzymatic activity defined a one milli-Anson unit per unit volume equal to one milliliter.</nciodm:CDISCDefinition>
                    <nciodm:PreferredTerm>Milli-Anson Unit per Milliliter</nciodm:PreferredTerm>
                </EnumeratedItem>
                <EnumeratedItem CodedValue="MBq" nciodm:ExtCodeID="C70512">
                    <nciodm:CDISCSynonym>Megabecquerel</nciodm:CDISCSynonym>
                    <nciodm:CDISCDefinition>A unit of radioactivity equal to one million nuclear disintegrations or other nuclear transformations per second, or to 10E6 Becquerels.(NCI)</nciodm:CDISCDefinition>
                    <nciodm:PreferredTerm>Megabecquerel</nciodm:PreferredTerm>
                </EnumeratedItem>
                <EnumeratedItem CodedValue="MBq/uL" nciodm:ExtCodeID="C71169">
                    <nciodm:CDISCSynonym>GBq/mL</nciodm:CDISCSynonym>
                    <nciodm:CDISCSynonym>Gigabecquerel per Milliliter</nciodm:CDISCSynonym>
                    <nciodm:CDISCSynonym>Megabecquerel per Microliter</nciodm:CDISCSynonym>
                    <nciodm:CDISCDefinition>A unit of volumetric radioactivity concentration defined as a concentration of a radionuclide with an activity equal to one million Becquerels per unit volume equal to one millionth of a liter.(NCI)</nciodm:CDISCDefinition>
                    <nciodm:PreferredTerm>Megabecquerel per Microliter</nciodm:PreferredTerm>
                </EnumeratedItem>
                <EnumeratedItem CodedValue="mCi" nciodm:ExtCodeID="C48511">
                    <nciodm:CDISCSynonym>Millicurie</nciodm:CDISCSynonym>
                    <nciodm:CDISCDefinition>A unit of radioactivity equal to one thousandth of a Curie or 37 megabecquerels, and corresponding to a radioactivity of 37 millions of atomic disintegrations per second.(NCI)</nciodm:CDISCDefinition>
                    <nciodm:PreferredTerm>Millicurie</nciodm:PreferredTerm>
                </EnumeratedItem>
                <EnumeratedItem CodedValue="mCi/kg" nciodm:ExtCodeID="C70570">
                    <nciodm:CDISCSynonym>Microcurie per Gram</nciodm:CDISCSynonym>
                    <nciodm:CDISCSynonym>Millicurie per Kilogram</nciodm:CDISCSynonym>
                    <nciodm:CDISCSynonym>uCi/g</nciodm:CDISCSynonym>
                    <nciodm:CDISCDefinition>A unit of specific radioactivity (massic activity) equal to activity of one millicurie of the sample with total mass of one kilogram.(NCI)</nciodm:CDISCDefinition>
                    <nciodm:PreferredTerm>Millicurie per Kilogram</nciodm:PreferredTerm>
                </EnumeratedItem>
                <EnumeratedItem CodedValue="mCi/L" nciodm:ExtCodeID="C71174">
                    <nciodm:CDISCSynonym>Microcurie per Milliliter</nciodm:CDISCSynonym>
                    <nciodm:CDISCSynonym>Millicurie per Liter</nciodm:CDISCSynonym>
                    <nciodm:CDISCSynonym>uCi/mL</nciodm:CDISCSynonym>
                    <nciodm:CDISCDefinition>A unit of volumetric radioactivity concentration defined as a concentration of a radionuclide with an activity equal to one thousandth of a Curie per unit volume equal to one liter.(NCI)</nciodm:CDISCDefinition>
                    <nciodm:PreferredTerm>Millicurie per Liter</nciodm:PreferredTerm>
                </EnumeratedItem>
                <EnumeratedItem CodedValue="mEq" nciodm:ExtCodeID="C48512">
                    <nciodm:CDISCSynonym>Milliequivalent</nciodm:CDISCSynonym>
                    <nciodm:CDISCDefinition>A unit of relative amount of a substance equal to one thousandth of an equivalent weight.(NCI)</nciodm:CDISCDefinition>
                    <nciodm:PreferredTerm>Milliequivalent</nciodm:PreferredTerm>
                </EnumeratedItem>
                <EnumeratedItem CodedValue="mEq/day" nciodm:ExtCodeID="C67471">
                    <nciodm:CDISCSynonym>Milliequivalents per Day</nciodm:CDISCSynonym>
                    <nciodm:CDISCDefinition>A unit of relative amount of substance flow rate equivalent to the rate at which one thousandth of an equivalent of substance travels to a given object or space over a period of time equal to twenty four hours.(NCI)</nciodm:CDISCDefinition>
                    <nciodm:PreferredTerm>Milliequivalent per 24 Hours</nciodm:PreferredTerm>
                </EnumeratedItem>
                <EnumeratedItem CodedValue="mEq/dL" nciodm:ExtCodeID="C67473">
                    <nciodm:CDISCSynonym>Milliequivalent per Deciliter</nciodm:CDISCSynonym>
                    <nciodm:CDISCDefinition>A concentration unit measured as a number of milliequivalents of solute per deciliter of solution. (NCI)</nciodm:CDISCDefinition>
                    <nciodm:PreferredTerm>Milliequivalent per Deciliter</nciodm:PreferredTerm>
                </EnumeratedItem>
                <EnumeratedItem CodedValue="mEq/g" nciodm:ExtCodeID="C70580">
                    <nciodm:CDISCSynonym>Milliequivalent Per Gram</nciodm:CDISCSynonym>
                    <nciodm:CDISCDefinition>A unit of relative amount of substance content equivalent to the content at which one gram of mixture contains one thousandth of an equivalent of a component. The unit is also used as a dose calculation unit.(NCI)</nciodm:CDISCDefinition>
                    <nciodm:PreferredTerm>Milliequivalent per Gram</nciodm:PreferredTerm>
                </EnumeratedItem>
                <EnumeratedItem CodedValue="mEq/kg" nciodm:ExtCodeID="C67475">
                    <nciodm:CDISCSynonym>Milliequivalent Per Kilogram</nciodm:CDISCSynonym>
                    <nciodm:CDISCDefinition>A unit of relative amount of substance content equivalent to the content at which one kilogram of mixture contains one thousandth of an equivalent of a component. The unit is also used as a dose calculation unit.(NCI)</nciodm:CDISCDefinition>
                    <nciodm:PreferredTerm>Milliequivalent per Kilogram</nciodm:PreferredTerm>
                </EnumeratedItem>
                <EnumeratedItem CodedValue="mEq/L" nciodm:ExtCodeID="C67474">
                    <nciodm:CDISCSynonym>Milliequivalent Per Liter</nciodm:CDISCSynonym>
                    <nciodm:CDISCSynonym>Millivalent per Liter</nciodm:CDISCSynonym>
                    <nciodm:CDISCSynonym>mval/L</nciodm:CDISCSynonym>
                    <nciodm:CDISCDefinition>A concentration unit measured as a number of milliequivalents of solute per liter of solution.(NCI)</nciodm:CDISCDefinition>
                    <nciodm:PreferredTerm>Milliequivalent per Liter</nciodm:PreferredTerm>
                </EnumeratedItem>
                <EnumeratedItem CodedValue="mEq/mL" nciodm:ExtCodeID="C73737">
                    <nciodm:CDISCSynonym>Milliequivalent per Milliliter</nciodm:CDISCSynonym>
                    <nciodm:CDISCDefinition>A concentration unit expressed in milliequivalent(s) of solute per milliliter of solution. (NCI)</nciodm:CDISCDefinition>
                    <nciodm:PreferredTerm>Milliequivalent per Milliliter</nciodm:PreferredTerm>
                </EnumeratedItem>
                <EnumeratedItem CodedValue="mEq/mmol" nciodm:ExtCodeID="C92616">
                    <nciodm:CDISCSynonym>Milliequivalent per Millimole</nciodm:CDISCSynonym>
                    <nciodm:CDISCDefinition>A concentration unit measured as a number of one thousandth of an equivalent weight per millimole of substance. (NCI)</nciodm:CDISCDefinition>
                    <nciodm:PreferredTerm>Milliequivalent per Milliimole</nciodm:PreferredTerm>
                </EnumeratedItem>
                <EnumeratedItem CodedValue="mEq/ug" nciodm:ExtCodeID="C70581">
                    <nciodm:CDISCSynonym>Milliequivalent Per Microgram</nciodm:CDISCSynonym>
                    <nciodm:CDISCSynonym>mEq/mcg</nciodm:CDISCSynonym>
                    <nciodm:CDISCDefinition>A unit of relative amount of substance content equivalent to the content at which one millionth of a gram of mixture contains one thousandth of an equivalent of a component. The unit is also used as a dose calculation unit.(NCI)</nciodm:CDISCDefinition>
                    <nciodm:PreferredTerm>Milliequivalent per Microgram</nciodm:PreferredTerm>
                </EnumeratedItem>
                <EnumeratedItem CodedValue="mEq/uL" nciodm:ExtCodeID="C70578">
                    <nciodm:CDISCSynonym>Milliequivalent Per Microliter</nciodm:CDISCSynonym>
                    <nciodm:CDISCDefinition>A concentration unit measured as a number of milliequivalents of solute per microliter of solution.(NCI)</nciodm:CDISCDefinition>
                    <nciodm:PreferredTerm>Milliequivalent per Microliter</nciodm:PreferredTerm>
                </EnumeratedItem>
                <EnumeratedItem CodedValue="MESF" nciodm:ExtCodeID="C96691">
                    <nciodm:CDISCSynonym>Molecules of Equivalent Soluble Fluorochromes</nciodm:CDISCSynonym>
                    <nciodm:CDISCDefinition>A unit of measure of the fluorescence intensity of a fluorochrome-labeled sample, which is equivalent to the fluorescence intensity of a solution containing an equivalent number of molecules of free fluorochrome in solution, under identical experimental conditions.</nciodm:CDISCDefinition>
                    <nciodm:PreferredTerm>Molecule of Equivalent Soluble Fluorochrome</nciodm:PreferredTerm>
                </EnumeratedItem>
                <EnumeratedItem CodedValue="MET" nciodm:ExtCodeID="C127805">
                    <nciodm:CDISCSynonym>Metabolic Equivalent of Task</nciodm:CDISCSynonym>
                    <nciodm:CDISCDefinition>A unit of energy expenditure equal to the ratio of metabolic rate during physical activity versus a reference metabolic rate.</nciodm:CDISCDefinition>
                    <nciodm:PreferredTerm>Metabolic Equivalent of Task Unit</nciodm:PreferredTerm>
                </EnumeratedItem>
                <EnumeratedItem CodedValue="MET*h" nciodm:ExtCodeID="C127806">
                    <nciodm:CDISCDefinition>A unit of energy expenditure equal to the number of metabolic equivalent of task units times the number of hours of performed activity.</nciodm:CDISCDefinition>
                    <nciodm:PreferredTerm>Metabolic Equivalent of Task Hours</nciodm:PreferredTerm>
                </EnumeratedItem>
                <EnumeratedItem CodedValue="MET*min" nciodm:ExtCodeID="C127807">
                    <nciodm:CDISCDefinition>A unit of energy expenditure equal to the number of metabolic equivalent of task units times the number of minutes of performed activity.</nciodm:CDISCDefinition>
                    <nciodm:PreferredTerm>Metabolic Equivalent of Task Minute</nciodm:PreferredTerm>
                </EnumeratedItem>
                <EnumeratedItem CodedValue="MFI" nciodm:ExtCodeID="C96687">
                    <nciodm:CDISCSynonym>Median Fluorescence Intensity</nciodm:CDISCSynonym>
                    <nciodm:CDISCDefinition>A unit of measure equal to the geometric mean fluorescence intensity of a log-normal distribution of fluorescence signals.</nciodm:CDISCDefinition>
                    <nciodm:PreferredTerm>Median Fluorescence Intensity</nciodm:PreferredTerm>
                </EnumeratedItem>
                <EnumeratedItem CodedValue="mg" nciodm:ExtCodeID="C28253">
                    <nciodm:CDISCSynonym>Milligram</nciodm:CDISCSynonym>
                    <nciodm:CDISCDefinition>A unit of mass equal to one thousandth (10E-3) of a gram.</nciodm:CDISCDefinition>
                    <nciodm:PreferredTerm>Milligram</nciodm:PreferredTerm>
                </EnumeratedItem>
                <EnumeratedItem CodedValue="mg/animal" nciodm:ExtCodeID="C73738">
                    <nciodm:CDISCSynonym>Milligram per Animal</nciodm:CDISCSynonym>
                    <nciodm:CDISCDefinition>A unit of measure expressed in milligram(s) per animal.</nciodm:CDISCDefinition>
                    <nciodm:PreferredTerm>Milligram per Animal</nciodm:PreferredTerm>
                </EnumeratedItem>
                <EnumeratedItem CodedValue="mg/cm2" nciodm:ExtCodeID="C124456">
                    <nciodm:CDISCDefinition>A unit of area density defined as a spread rate at which one milligram of a substance is spread over the area of one square centimeter. The unit is also used as a dose calculation unit.</nciodm:CDISCDefinition>
                    <nciodm:PreferredTerm>Milligram per Squared Centimeter</nciodm:PreferredTerm>
                </EnumeratedItem>
                <EnumeratedItem CodedValue="mg/day" nciodm:ExtCodeID="C67399">
                    <nciodm:CDISCDefinition>A unit of mass flow rate equal to one milligram per day.</nciodm:CDISCDefinition>
                    <nciodm:PreferredTerm>Milligram per 24 Hours</nciodm:PreferredTerm>
                </EnumeratedItem>
                <EnumeratedItem CodedValue="mg/dL" nciodm:ExtCodeID="C67015">
                    <nciodm:CDISCSynonym>Milligram per Deciliter</nciodm:CDISCSynonym>
                    <nciodm:CDISCSynonym>mg%</nciodm:CDISCSynonym>
                    <nciodm:CDISCDefinition>A unit of mass concentration defined as the concentration of one milligram of a substance in unit volume of the mixture equal to one cubic deciliter or 100 cubic centimeters. It is also a unit of mass density (volumic mass) defined as the density of substance which mass equal to one milligram occupies the volume one cubic deciliter or 100 cubic centimeters.(NCI)</nciodm:CDISCDefinition>
                    <nciodm:PreferredTerm>Milligram per Deciliter</nciodm:PreferredTerm>
                </EnumeratedItem>
                <EnumeratedItem CodedValue="mg/dose" nciodm:ExtCodeID="C124457">
                    <nciodm:CDISCDefinition>A unit of measure expressed in milligram(s) per dose.</nciodm:CDISCDefinition>
                    <nciodm:PreferredTerm>Milligram per Dose</nciodm:PreferredTerm>
                </EnumeratedItem>
                <EnumeratedItem CodedValue="mg/g/h" nciodm:ExtCodeID="C73740">
                    <nciodm:CDISCSynonym>Milligram per Gram per Hour</nciodm:CDISCSynonym>
                    <nciodm:CDISCDefinition>A dose calculation unit expressed in milligram(s) per gram per period of time equal to sixty minutes. (NCI)</nciodm:CDISCDefinition>
                    <nciodm:PreferredTerm>Milligram per Gram per Hour</nciodm:PreferredTerm>
                </EnumeratedItem>
                <EnumeratedItem CodedValue="mg/g/min" nciodm:ExtCodeID="C73741">
                    <nciodm:CDISCSynonym>Milligram per Gram per Minute</nciodm:CDISCSynonym>
                    <nciodm:CDISCDefinition>A dose calculation unit expressed in milligram(s) per gram per period of time equal to sixty seconds. (NCI)</nciodm:CDISCDefinition>
                    <nciodm:PreferredTerm>Milligram per Gram per Minute</nciodm:PreferredTerm>
                </EnumeratedItem>
                <EnumeratedItem CodedValue="mg/h" nciodm:ExtCodeID="C66969">
                    <nciodm:CDISCDefinition>A unit of mass flow rate equal to one milligram per hour.</nciodm:CDISCDefinition>
                    <nciodm:PreferredTerm>Milligram per Hour</nciodm:PreferredTerm>
                </EnumeratedItem>
                <EnumeratedItem CodedValue="mg/kg" nciodm:ExtCodeID="C67401">
                    <nciodm:CDISCSynonym>Milligram per Kilogram</nciodm:CDISCSynonym>
                    <nciodm:CDISCSynonym>ug/g</nciodm:CDISCSynonym>
                    <nciodm:CDISCDefinition>A unit of a mass fraction expressed as a number of milligrams of substance per kilogram of mixture. The unit is also used as a dose calculation unit.(NCI)</nciodm:CDISCDefinition>
                    <nciodm:PreferredTerm>Milligram per Kilogram</nciodm:PreferredTerm>
                </EnumeratedItem>
                <EnumeratedItem CodedValue="mg/kg/day" nciodm:ExtCodeID="C66976">
                    <nciodm:CDISCSynonym>Milligram per Kilogram per Day</nciodm:CDISCSynonym>
                    <nciodm:CDISCDefinition>A dose calculation unit expressed in milligram(s) per kilogram per period of time equal to twenty-four hours. (NCI)</nciodm:CDISCDefinition>
                    <nciodm:PreferredTerm>Milligram per Kilogram per Day</nciodm:PreferredTerm>
                </EnumeratedItem>
                <EnumeratedItem CodedValue="mg/kg/dose" nciodm:ExtCodeID="C124458">
                    <nciodm:CDISCDefinition>A dose calculation unit expressed in milligram(s) per kilogram per single dose.</nciodm:CDISCDefinition>
                    <nciodm:PreferredTerm>Milligram per Kilogram per Dose</nciodm:PreferredTerm>
                </EnumeratedItem>
                <EnumeratedItem CodedValue="mg/kg/h" nciodm:ExtCodeID="C71362">
                    <nciodm:CDISCSynonym>Milligram per Kilogram per Hour</nciodm:CDISCSynonym>
                    <nciodm:CDISCDefinition>A dose calculation unit equal to one thousandth of a gram of a preparation per one kilogram of body mass administered per unit of time equal to one hour.(NCI)</nciodm:CDISCDefinition>
                    <nciodm:PreferredTerm>Milligram per Kilogram per Hour</nciodm:PreferredTerm>
                </EnumeratedItem>
                <EnumeratedItem CodedValue="mg/kg/min" nciodm:ExtCodeID="C71207">
                    <nciodm:CDISCSynonym>Milligram per Kilogram per Minute</nciodm:CDISCSynonym>
                    <nciodm:CDISCDefinition>A dose calculation unit equal to one thousandth of a gram of a preparation per one kilogram of body mass administered per unit of time equal to one minute.(NCI)</nciodm:CDISCDefinition>
                    <nciodm:PreferredTerm>Milligram per Kilogram per Minute</nciodm:PreferredTerm>
                </EnumeratedItem>
                <EnumeratedItem CodedValue="mg/L" nciodm:ExtCodeID="C64572">
                    <nciodm:CDISCSynonym>Gram per Cubic Meter</nciodm:CDISCSynonym>
                    <nciodm:CDISCSynonym>Microgram per Milliliter</nciodm:CDISCSynonym>
                    <nciodm:CDISCSynonym>Milligram per Liter</nciodm:CDISCSynonym>
                    <nciodm:CDISCSynonym>g/m3</nciodm:CDISCSynonym>
                    <nciodm:CDISCSynonym>mcg/mL</nciodm:CDISCSynonym>
                    <nciodm:CDISCSynonym>mg/L</nciodm:CDISCSynonym>
                    <nciodm:CDISCSynonym>ng/uL</nciodm:CDISCSynonym>
                    <nciodm:CDISCSynonym>ug/mL</nciodm:CDISCSynonym>
                    <nciodm:CDISCDefinition>A unit of concentration or mass density equal to one microgram of substance per milliliter of solution or one milligram of substance per liter of solution.</nciodm:CDISCDefinition>
                    <nciodm:PreferredTerm>Microgram per Milliliter</nciodm:PreferredTerm>
                </EnumeratedItem>
                <EnumeratedItem CodedValue="mg/m2" nciodm:ExtCodeID="C67402">
                    <nciodm:CDISCSynonym>Milligram per Square Meter</nciodm:CDISCSynonym>
                    <nciodm:CDISCDefinition>A unit of area density equal to approximately 2.94935E-5 ounce per square yard. Also used as a dose calculation unit.(NCI)</nciodm:CDISCDefinition>
                    <nciodm:PreferredTerm>Milligram per Square Meter</nciodm:PreferredTerm>
                </EnumeratedItem>
                <EnumeratedItem CodedValue="mg/m2/day" nciodm:ExtCodeID="C66974">
                    <nciodm:CDISCSynonym>Milligram per Square Meter per Day</nciodm:CDISCSynonym>
                    <nciodm:CDISCDefinition>A dose calculation unit expressed in milligram(s) per square meter per period of time equal to twenty-four hours. (NCI)</nciodm:CDISCDefinition>
                    <nciodm:PreferredTerm>Milligram per Square Meter per Day</nciodm:PreferredTerm>
                </EnumeratedItem>
                <EnumeratedItem CodedValue="mg/m2/h" nciodm:ExtCodeID="C73743">
                    <nciodm:CDISCSynonym>Milligram per Square Meter per Hour</nciodm:CDISCSynonym>
                    <nciodm:CDISCDefinition>A dose calculation unit expressed in milligram(s) per square meter per period of time equal to sixty minutes. (NCI)</nciodm:CDISCDefinition>
                    <nciodm:PreferredTerm>Milligram per Square Meter per Hour</nciodm:PreferredTerm>
                </EnumeratedItem>
                <EnumeratedItem CodedValue="mg/m2/min" nciodm:ExtCodeID="C73744">
                    <nciodm:CDISCSynonym>Milligram per Square Meter per Minute</nciodm:CDISCSynonym>
                    <nciodm:CDISCDefinition>A dose calculation unit expressed in milligram(s) per square meter per period of time equal to sixty seconds. (NCI)</nciodm:CDISCDefinition>
                    <nciodm:PreferredTerm>Milligram per Square Meter per Minute</nciodm:PreferredTerm>
                </EnumeratedItem>
                <EnumeratedItem CodedValue="mg/min" nciodm:ExtCodeID="C73742">
                    <nciodm:CDISCDefinition>A unit of mass flow rate equal to one milligram per minute.</nciodm:CDISCDefinition>
                    <nciodm:PreferredTerm>Milligram per Minute</nciodm:PreferredTerm>
                </EnumeratedItem>
                <EnumeratedItem CodedValue="mg/mL/min" nciodm:ExtCodeID="C67403">
                    <nciodm:CDISCSynonym>Milligram per Milliliter per Minute</nciodm:CDISCSynonym>
                    <nciodm:CDISCDefinition>A unit expressed in milligrams per milliliter per period of time equal to sixty seconds.</nciodm:CDISCDefinition>
                    <nciodm:PreferredTerm>Milligram per Milliliter per Minute</nciodm:PreferredTerm>
                </EnumeratedItem>
                <EnumeratedItem CodedValue="mg/mol" nciodm:ExtCodeID="C120843">
                    <nciodm:CDISCSynonym>ug/mmol</nciodm:CDISCSynonym>
                    <nciodm:CDISCDefinition>A unit of mass commonly used to express the molar mass of a substance in milligram(s) per mole.</nciodm:CDISCDefinition>
                    <nciodm:PreferredTerm>Milligram per Mole</nciodm:PreferredTerm>
                </EnumeratedItem>
                <EnumeratedItem CodedValue="mg2/dL2" nciodm:ExtCodeID="C122212">
                    <nciodm:CDISCDefinition>A unit of mass concentration defined as one square milligram of a substance in unit volume of the mixture equal to one square deciliter.</nciodm:CDISCDefinition>
                    <nciodm:PreferredTerm>Square Milligram per Square Deciliter</nciodm:PreferredTerm>
                </EnumeratedItem>
                <EnumeratedItem CodedValue="MHz" nciodm:ExtCodeID="C67314">
                    <nciodm:CDISCSynonym>Megahertz</nciodm:CDISCSynonym>
                    <nciodm:CDISCDefinition>The SI derived unit of frequency; equal to one million oscillations per second or to 10E6 hertz. (NCI)</nciodm:CDISCDefinition>
                    <nciodm:PreferredTerm>Megahertz</nciodm:PreferredTerm>
                </EnumeratedItem>
                <EnumeratedItem CodedValue="Mile" nciodm:ExtCodeID="C71183">
                    <nciodm:CDISCSynonym>International Mile</nciodm:CDISCSynonym>
                    <nciodm:CDISCDefinition>A unit of distance equal to 5280 international feet, 1760 international yards, or 1609.344 meters.(NCI)</nciodm:CDISCDefinition>
                    <nciodm:PreferredTerm>Mile</nciodm:PreferredTerm>
                </EnumeratedItem>
                <EnumeratedItem CodedValue="min" nciodm:ExtCodeID="C48154">
                    <nciodm:CDISCSynonym>Minute</nciodm:CDISCSynonym>
                    <nciodm:CDISCDefinition>A unit of measurement of time equal to 60 seconds.</nciodm:CDISCDefinition>
                    <nciodm:PreferredTerm>Minute</nciodm:PreferredTerm>
                </EnumeratedItem>
                <EnumeratedItem CodedValue="mIU/L" nciodm:ExtCodeID="C67405">
                    <nciodm:CDISCSynonym>Micro-International Unit per milliliter</nciodm:CDISCSynonym>
                    <nciodm:CDISCSynonym>mIE/L</nciodm:CDISCSynonym>
                    <nciodm:CDISCSynonym>mIU/L</nciodm:CDISCSynonym>
                    <nciodm:CDISCSynonym>mcIU/mL</nciodm:CDISCSynonym>
                    <nciodm:CDISCSynonym>uIU/mL</nciodm:CDISCSynonym>
                    <nciodm:CDISCDefinition>A unit of concentration (biologic activity) equal to one micro-international unit of substance per milliliter of solution or one milli-international unit of substance per liter of solution.</nciodm:CDISCDefinition>
                    <nciodm:PreferredTerm>Microinternational Unit per Milliliter</nciodm:PreferredTerm>
                </EnumeratedItem>
                <EnumeratedItem CodedValue="mJoule/cm2" nciodm:ExtCodeID="C116241">
                    <nciodm:CDISCDefinition>A unit of radiant exposure defined as a unit of energy equal to one millijoule applied to a unit of area equal to one square centimeter.</nciodm:CDISCDefinition>
                    <nciodm:PreferredTerm>Millijoules per Square Centimeter</nciodm:PreferredTerm>
                </EnumeratedItem>
                <EnumeratedItem CodedValue="mkat" nciodm:ExtCodeID="C70507">
                    <nciodm:CDISCSynonym>Millikatal</nciodm:CDISCSynonym>
                    <nciodm:CDISCDefinition>A unit of catalytic activity measurement equal to one thousandth of one katal (10E-3 katal).(NCI)</nciodm:CDISCDefinition>
                    <nciodm:PreferredTerm>Millikatal</nciodm:PreferredTerm>
                </EnumeratedItem>
                <EnumeratedItem CodedValue="mL" nciodm:ExtCodeID="C28254">
                    <nciodm:CDISCSynonym>Milliliter</nciodm:CDISCSynonym>
                    <nciodm:CDISCSynonym>cm3</nciodm:CDISCSynonym>
                    <nciodm:CDISCDefinition>The unit of volume equal to one thousandth of a liter, one cubic centimeter, 10E-6 cubic meter, or approximately to 0.061 023 7 cubic inch.(NCI)</nciodm:CDISCDefinition>
                    <nciodm:PreferredTerm>Milliliter</nciodm:PreferredTerm>
                </EnumeratedItem>
                <EnumeratedItem CodedValue="mL/animal" nciodm:ExtCodeID="C73746">
                    <nciodm:CDISCSynonym>Milliliter per Animal</nciodm:CDISCSynonym>
                    <nciodm:CDISCDefinition>A unit of measure expressed in milliliter(s) per animal.</nciodm:CDISCDefinition>
                    <nciodm:PreferredTerm>Milliliter per Animal</nciodm:PreferredTerm>
                </EnumeratedItem>
                <EnumeratedItem CodedValue="mL/animal/day" nciodm:ExtCodeID="C73747">
                    <nciodm:CDISCSynonym>Milliliter per Animal per Day</nciodm:CDISCSynonym>
                    <nciodm:CDISCDefinition>A unit of measure expressed in milliliter(s) per animal per period of time equal to twenty-four hours.</nciodm:CDISCDefinition>
                    <nciodm:PreferredTerm>Milliliter per Animal per Day</nciodm:PreferredTerm>
                </EnumeratedItem>
                <EnumeratedItem CodedValue="mL/animal/wk" nciodm:ExtCodeID="C73748">
                    <nciodm:CDISCSynonym>Milliliter per Animal per Week</nciodm:CDISCSynonym>
                    <nciodm:CDISCDefinition>A unit of measure expressed in milliliter(s) per animal per period of time equal to seven days.</nciodm:CDISCDefinition>
                    <nciodm:PreferredTerm>Milliliter per Animal per Week</nciodm:PreferredTerm>
                </EnumeratedItem>
                <EnumeratedItem CodedValue="mL/beat" nciodm:ExtCodeID="C127808">
                    <nciodm:CDISCDefinition>A unit of measure expressed in milliliter(s) per heart beat.</nciodm:CDISCDefinition>
                    <nciodm:PreferredTerm>Milliliter per Heartbeat</nciodm:PreferredTerm>
                </EnumeratedItem>
                <EnumeratedItem CodedValue="mL/breath" nciodm:ExtCodeID="C73749">
                    <nciodm:CDISCSynonym>Milliliter per Breath</nciodm:CDISCSynonym>
                    <nciodm:CDISCDefinition>A unit of measure expressed in milliliter(s) per inspiration or expiration of breath.</nciodm:CDISCDefinition>
                    <nciodm:PreferredTerm>Milliliter per Breath</nciodm:PreferredTerm>
                </EnumeratedItem>
                <EnumeratedItem CodedValue="mL/cage" nciodm:ExtCodeID="C73750">
                    <nciodm:CDISCSynonym>Milliliter per Cage</nciodm:CDISCSynonym>
                    <nciodm:CDISCDefinition>A unit of measure expressed in milliliter(s) per cage.</nciodm:CDISCDefinition>
                    <nciodm:PreferredTerm>Milliliter per Cage</nciodm:PreferredTerm>
                </EnumeratedItem>
                <EnumeratedItem CodedValue="mL/cage/day" nciodm:ExtCodeID="C73751">
                    <nciodm:CDISCSynonym>Milliliter per Cage per Day</nciodm:CDISCSynonym>
                    <nciodm:CDISCDefinition>A unit of measure expressed in milliliter(s) per cage per period of time equal to twenty-four hours.</nciodm:CDISCDefinition>
                    <nciodm:PreferredTerm>Milliliter per Cage per Day</nciodm:PreferredTerm>
                </EnumeratedItem>
                <EnumeratedItem CodedValue="mL/cage/wk" nciodm:ExtCodeID="C73752">
                    <nciodm:CDISCSynonym>Milliliter per Cage per Week</nciodm:CDISCSynonym>
                    <nciodm:CDISCDefinition>A unit of measure expressed in milliliter(s) per cage expressed per period of time equal to seven days.</nciodm:CDISCDefinition>
                    <nciodm:PreferredTerm>Milliliter per Cage per Week</nciodm:PreferredTerm>
                </EnumeratedItem>
                <EnumeratedItem CodedValue="mL/cm" nciodm:ExtCodeID="C105503">
                    <nciodm:CDISCSynonym>Milliliter per Centimeter</nciodm:CDISCSynonym>
                    <nciodm:CDISCSynonym>dL/m</nciodm:CDISCSynonym>
                    <nciodm:CDISCDefinition>A unit of measure equal to the number of milliliters per unit of length equal to one centimeter. (NCI)</nciodm:CDISCDefinition>
                    <nciodm:PreferredTerm>Milliliter per Centimeter</nciodm:PreferredTerm>
                </EnumeratedItem>
                <EnumeratedItem CodedValue="mL/cm H2O" nciodm:ExtCodeID="C98755">
                    <nciodm:CDISCDefinition>A unit of pressure expressed in milliliter(s) per centimeter of water. (NCI)</nciodm:CDISCDefinition>
                    <nciodm:PreferredTerm>Milliliter per Centimeter of Water</nciodm:PreferredTerm>
                </EnumeratedItem>
                <EnumeratedItem CodedValue="mL/day" nciodm:ExtCodeID="C67410">
                    <nciodm:CDISCDefinition>A unit of flow rate, defined as a rate of one milliliter per day.</nciodm:CDISCDefinition>
                    <nciodm:PreferredTerm>Milliliter per 24 Hours</nciodm:PreferredTerm>
                </EnumeratedItem>
                <EnumeratedItem CodedValue="mL/dL" nciodm:ExtCodeID="C105504">
                    <nciodm:CDISCSynonym>Milliliters per Deciliter</nciodm:CDISCSynonym>
                    <nciodm:CDISCDefinition>A unit of volume concentration equal to the number of milliliters per unit of volume equal to one deciliter.</nciodm:CDISCDefinition>
                    <nciodm:PreferredTerm>Milliliter per Deciliter</nciodm:PreferredTerm>
                </EnumeratedItem>
                <EnumeratedItem CodedValue="mL/dose" nciodm:ExtCodeID="C124459">
                    <nciodm:CDISCDefinition>A unit of measure expressed in milliliter(s) per dose.</nciodm:CDISCDefinition>
                    <nciodm:PreferredTerm>Milliliter per Dose</nciodm:PreferredTerm>
                </EnumeratedItem>
                <EnumeratedItem CodedValue="mL/g/day" nciodm:ExtCodeID="C73755">
                    <nciodm:CDISCSynonym>(L/day)/kg</nciodm:CDISCSynonym>
                    <nciodm:CDISCSynonym>(mL/day)/g</nciodm:CDISCSynonym>
                    <nciodm:CDISCSynonym>mL/g/day</nciodm:CDISCSynonym>
                    <nciodm:CDISCDefinition>Milliliters per gram per day or liters per day (flow rate), divided by kilograms (weight) or milliliters per day (flow rate), divided by grams (weight).</nciodm:CDISCDefinition>
                    <nciodm:PreferredTerm>Milliliter per Gram per Day</nciodm:PreferredTerm>
                </EnumeratedItem>
                <EnumeratedItem CodedValue="mL/g/h" nciodm:ExtCodeID="C73756">
                    <nciodm:CDISCSynonym>(L/h)/kg</nciodm:CDISCSynonym>
                    <nciodm:CDISCSynonym>(mL/h)/g</nciodm:CDISCSynonym>
                    <nciodm:CDISCSynonym>mL/g/h</nciodm:CDISCSynonym>
                    <nciodm:CDISCDefinition>Milliliters per gram per hour or liters per hour (flow rate), divided by kilograms (weight) or milliliters per hour (flow rate), divided by grams (weight).</nciodm:CDISCDefinition>
                    <nciodm:PreferredTerm>Milliliter per Gram per Hour</nciodm:PreferredTerm>
                </EnumeratedItem>
                <EnumeratedItem CodedValue="mL/g/min" nciodm:ExtCodeID="C73757">
                    <nciodm:CDISCSynonym>(L/min)/kg</nciodm:CDISCSynonym>
                    <nciodm:CDISCSynonym>(mL/min)/g</nciodm:CDISCSynonym>
                    <nciodm:CDISCSynonym>mL/g/min</nciodm:CDISCSynonym>
                    <nciodm:CDISCDefinition>Milliliters per gram per minute or liters per minute (flow rate), divided by kilograms (weight) or milliliters per minute (flow rate), divided by grams (weight).</nciodm:CDISCDefinition>
                    <nciodm:PreferredTerm>Milliliter per Gram per Minute</nciodm:PreferredTerm>
                </EnumeratedItem>
                <EnumeratedItem CodedValue="mL/h" nciodm:ExtCodeID="C66962">
                    <nciodm:CDISCDefinition>A unit of flow rate, defined as a rate of one milliliter per hour.</nciodm:CDISCDefinition>
                    <nciodm:PreferredTerm>Milliliter per Hour</nciodm:PreferredTerm>
                </EnumeratedItem>
                <EnumeratedItem CodedValue="mL/kg" nciodm:ExtCodeID="C67411">
                    <nciodm:CDISCDefinition>Milliliters (volume) divided by kilograms (weight).</nciodm:CDISCDefinition>
                    <nciodm:PreferredTerm>Milliliter per Kilogram</nciodm:PreferredTerm>
                </EnumeratedItem>
                <EnumeratedItem CodedValue="mL/kg/day" nciodm:ExtCodeID="C73758">
                    <nciodm:CDISCSynonym>(mL/day)/kg</nciodm:CDISCSynonym>
                    <nciodm:CDISCSynonym>mL/kg/day</nciodm:CDISCSynonym>
                    <nciodm:CDISCDefinition>Milliliters per kilogram per day or milliliters per day (flow rate), divided by kilograms (weight).</nciodm:CDISCDefinition>
                    <nciodm:PreferredTerm>Milliliter per Kilogram per Day</nciodm:PreferredTerm>
                </EnumeratedItem>
                <EnumeratedItem CodedValue="mL/kg/h" nciodm:ExtCodeID="C73759">
                    <nciodm:CDISCSynonym>(mL/h)/kg</nciodm:CDISCSynonym>
                    <nciodm:CDISCSynonym>mL/kg/h</nciodm:CDISCSynonym>
                    <nciodm:CDISCDefinition>Milliliters per kilogram per hour or milliliters per hour (flow rate), divided by kilograms (weight).</nciodm:CDISCDefinition>
                    <nciodm:PreferredTerm>Milliliter per Kilogram per Hour</nciodm:PreferredTerm>
                </EnumeratedItem>
                <EnumeratedItem CodedValue="mL/kg/min" nciodm:ExtCodeID="C73760">
                    <nciodm:CDISCSynonym>(mL/min)/kg</nciodm:CDISCSynonym>
                    <nciodm:CDISCSynonym>mL/kg/min</nciodm:CDISCSynonym>
                    <nciodm:CDISCDefinition>Milliliters per kilogram per minute or milliliters per minute (flow rate), divided by kilograms (weight).</nciodm:CDISCDefinition>
                    <nciodm:PreferredTerm>Milliliter per Kilogram per Minute</nciodm:PreferredTerm>
                </EnumeratedItem>
                <EnumeratedItem CodedValue="mL/m2" nciodm:ExtCodeID="C73761">
                    <nciodm:CDISCDefinition>Milliliters (volume) divided by meters squared (surface area).</nciodm:CDISCDefinition>
                    <nciodm:PreferredTerm>Milliliter per Square Meter</nciodm:PreferredTerm>
                </EnumeratedItem>
                <EnumeratedItem CodedValue="mL/m2/day" nciodm:ExtCodeID="C66977">
                    <nciodm:CDISCSynonym>Milliliter per Square Meter per Day</nciodm:CDISCSynonym>
                    <nciodm:CDISCDefinition>A dose calculation unit expressed in milliliter(s) per square meter per period of time equal to twenty-four hours. (NCI)</nciodm:CDISCDefinition>
                    <nciodm:PreferredTerm>Milliliter per Square Meter per Day</nciodm:PreferredTerm>
                </EnumeratedItem>
                <EnumeratedItem CodedValue="mL/m2/h" nciodm:ExtCodeID="C73762">
                    <nciodm:CDISCSynonym>Milliliter per Square Meter per Hour</nciodm:CDISCSynonym>
                    <nciodm:CDISCDefinition>A dose calculation unit expressed in milliliter(s) per square meter per period of time equal to sixty minutes. (NCI)</nciodm:CDISCDefinition>
                    <nciodm:PreferredTerm>Milliliter per Square Meter per Hour</nciodm:PreferredTerm>
                </EnumeratedItem>
                <EnumeratedItem CodedValue="mL/m2/min" nciodm:ExtCodeID="C73763">
                    <nciodm:CDISCSynonym>Milliliter per Square Meter per Minute</nciodm:CDISCSynonym>
                    <nciodm:CDISCDefinition>A dose calculation unit expressed in milliliter(s) per square meter per period of time equal to sixty seconds. (NCI)</nciodm:CDISCDefinition>
                    <nciodm:PreferredTerm>Milliliter per Square Meter per Minute</nciodm:PreferredTerm>
                </EnumeratedItem>
                <EnumeratedItem CodedValue="mL/min" nciodm:ExtCodeID="C64777">
                    <nciodm:CDISCDefinition>A unit of flow rate, defined as a rate of one milliliter per minute.</nciodm:CDISCDefinition>
                    <nciodm:PreferredTerm>Milliliter per Minute</nciodm:PreferredTerm>
                </EnumeratedItem>
                <EnumeratedItem CodedValue="mL/min/1.73m2" nciodm:ExtCodeID="C67412">
                    <nciodm:CDISCDefinition>A metric unit of volumetric flow rate defined as the rate at which one milliliter of matter travels during the period of time equal to one minute per 1.73 meters squared of body surface area.</nciodm:CDISCDefinition>
                    <nciodm:PreferredTerm>Milliliter per Minute per 1.73 m2 of Body Surface Area</nciodm:PreferredTerm>
                </EnumeratedItem>
                <EnumeratedItem CodedValue="mL/min/mmHg" nciodm:ExtCodeID="C67417">
                    <nciodm:CDISCSynonym>Milliliter per Minute per Torr</nciodm:CDISCSynonym>
                    <nciodm:CDISCDefinition>A unit of measure equal to the number of milliliters per unit of time equal to one minute per unit of pressure equal to one milliter of mercury (mmHg).</nciodm:CDISCDefinition>
                    <nciodm:PreferredTerm>Milliliter per Minute per Millimeters of Mercury</nciodm:PreferredTerm>
                </EnumeratedItem>
                <EnumeratedItem CodedValue="mL/mmHg" nciodm:ExtCodeID="C106542">
                    <nciodm:CDISCSynonym>Milliliters per Millimeter of Mercury</nciodm:CDISCSynonym>
                    <nciodm:CDISCDefinition>A unit equal to the volume in milliliters per one millimeter rise of mercury in a barometer at the Earth's surface. (NCI)</nciodm:CDISCDefinition>
                    <nciodm:PreferredTerm>Milliliters Per Millimeter of Mercury</nciodm:PreferredTerm>
                </EnumeratedItem>
                <EnumeratedItem CodedValue="mL/mmHg/min/L" nciodm:ExtCodeID="C67418">
