<CodeList xmlns="http://www.cdisc.org/ns/odm/v1.3" xmlns:nciodm="http://ncicb.nci.nih.gov/xml/odm/EVS/CDISC" xmlns:xs="http://www.w3.org/2001/XMLSchema-instance" OID="CL.C138212.HSB01TN" Name="HAS-BLED Bleeding Risk Score Clinical Classification Test Name" DataType="text" nciodm:ExtCodeID="C138212" nciodm:CodeListExtensible="No">
                <Description>
                    <TranslatedText xml:lang="en">HAS-BLED Bleeding Risk Score test name.</TranslatedText>
                </Description>
                <EnumeratedItem CodedValue="HSB01-Abnormal Renal and Liver Function" nciodm:ExtCodeID="C138358">
                    <nciodm:CDISCSynonym>HSB01-Abnormal Renal and Liver Function</nciodm:CDISCSynonym>
                    <nciodm:CDISCDefinition>HAS-BLED Bleeding Risk Score - Abnormal renal and liver function.</nciodm:CDISCDefinition>
                    <nciodm:PreferredTerm>HAS-BLED - Abnormal Renal and Liver Function</nciodm:PreferredTerm>
                </EnumeratedItem>
                <EnumeratedItem CodedValue="HSB01-Bleeding" nciodm:ExtCodeID="C138360">
                    <nciodm:CDISCSynonym>HSB01-Bleeding</nciodm:CDISCSynonym>
                    <nciodm:CDISCDefinition>HAS-BLED Bleeding Risk Score - Bleeding.</nciodm:CDISCDefinition>
                    <nciodm:PreferredTerm>HAS-BLED - Bleeding</nciodm:PreferredTerm>
                </EnumeratedItem>
                <EnumeratedItem CodedValue="HSB01-Drugs or Alcohol" nciodm:ExtCodeID="C138363">
                    <nciodm:CDISCSynonym>HSB01-Drugs or Alcohol</nciodm:CDISCSynonym>
                    <nciodm:CDISCDefinition>HAS-BLED Bleeding Risk Score - Drugs or alcohol.</nciodm:CDISCDefinition>
                    <nciodm:PreferredTerm>HAS-BLED - Drugs or Alcohol</nciodm:PreferredTerm>
                </EnumeratedItem>
                <EnumeratedItem CodedValue="HSB01-Elderly" nciodm:ExtCodeID="C138362">
                    <nciodm:CDISCSynonym>HSB01-Elderly</nciodm:CDISCSynonym>
                    <nciodm:CDISCDefinition>HAS-BLED Bleeding Risk Score - Elderly.</nciodm:CDISCDefinition>
                    <nciodm:PreferredTerm>HAS-BLED - Elderly</nciodm:PreferredTerm>
                </EnumeratedItem>
                <EnumeratedItem CodedValue="HSB01-Hypertension" nciodm:ExtCodeID="C138357">
                    <nciodm:CDISCSynonym>HSB01-Hypertension</nciodm:CDISCSynonym>
                    <nciodm:CDISCDefinition>HAS-BLED Bleeding Risk Score - Hypertension.</nciodm:CDISCDefinition>
                    <nciodm:PreferredTerm>HAS-BLED - Hypertension</nciodm:PreferredTerm>
                </EnumeratedItem>
                <EnumeratedItem CodedValue="HSB01-Labile INRs" nciodm:ExtCodeID="C138361">
                    <nciodm:CDISCSynonym>HSB01-Labile INRs</nciodm:CDISCSynonym>
                    <nciodm:CDISCDefinition>HAS-BLED Bleeding Risk Score - Labile INRs.</nciodm:CDISCDefinition>
                    <nciodm:PreferredTerm>HAS-BLED - Labile INRs</nciodm:PreferredTerm>
                </EnumeratedItem>
                <EnumeratedItem CodedValue="HSB01-Stroke" nciodm:ExtCodeID="C138359">
                    <nciodm:CDISCSynonym>HSB01-Stroke</nciodm:CDISCSynonym>
                    <nciodm:CDISCDefinition>HAS-BLED Bleeding Risk Score - Stroke.</nciodm:CDISCDefinition>
                    <nciodm:PreferredTerm>HAS-BLED - Stroke</nciodm:PreferredTerm>
                </EnumeratedItem>
                <nciodm:CDISCSubmissionValue>HSB01TN</nciodm:CDISCSubmissionValue>
                <nciodm:CDISCSynonym>HAS-BLED Bleeding Risk Score Clinical Classification Test Name</nciodm:CDISCSynonym>
                <nciodm:PreferredTerm>CDISC Clinical Classification HAS-BLED Test Name Terminology</nciodm:PreferredTerm>
            </CodeList>
            
