<CodeList xmlns="http://www.cdisc.org/ns/odm/v1.3" xmlns:nciodm="http://ncicb.nci.nih.gov/xml/odm/EVS/CDISC" xmlns:xs="http://www.w3.org/2001/XMLSchema-instance" OID="CL.C120528.MBTEST" Name="Microbiology Test Name" DataType="text" nciodm:ExtCodeID="C120528" nciodm:CodeListExtensible="Yes">
                <Description>
                    <TranslatedText xml:lang="en">Terminology relevant to the microbiology test names of the CDISC Study Data Tabulation Model.</TranslatedText>
                </Description>
                <EnumeratedItem CodedValue="Acid-Fast Bacilli" nciodm:ExtCodeID="C128981">
                    <nciodm:CDISCSynonym>Acid-Fast Bacilli</nciodm:CDISCSynonym>
                    <nciodm:CDISCDefinition>A measurement of any rod-shaped bacteria that resist decolorizing by acid after accepting an aqueous stain solution, due to the mycolic acids in their cell walls.</nciodm:CDISCDefinition>
                    <nciodm:PreferredTerm>Acid-Fast Bacilli Measurement</nciodm:PreferredTerm>
                </EnumeratedItem>
                <EnumeratedItem CodedValue="Burkholderia" nciodm:ExtCodeID="C139113">
                    <nciodm:CDISCSynonym>Burkholderia</nciodm:CDISCSynonym>
                    <nciodm:CDISCDefinition>A measurement of the organisms that are not assigned to the species level but are assigned to the Burkholderia genus level in a biological specimen.</nciodm:CDISCDefinition>
                    <nciodm:PreferredTerm>Burkholderia Measurement</nciodm:PreferredTerm>
                </EnumeratedItem>
                <EnumeratedItem CodedValue="Burkholderia cepacia" nciodm:ExtCodeID="C147456">
                    <nciodm:CDISCSynonym>B. cepacia</nciodm:CDISCSynonym>
                    <nciodm:CDISCSynonym>Burkholderia cepacia</nciodm:CDISCSynonym>
                    <nciodm:CDISCSynonym>Pseudomonas cepacia</nciodm:CDISCSynonym>
                    <nciodm:CDISCDefinition>A measurement of the Burkholderia cepacia in a biological specimen.</nciodm:CDISCDefinition>
                    <nciodm:PreferredTerm>Burkholderia cepacia Measurement</nciodm:PreferredTerm>
                </EnumeratedItem>
                <EnumeratedItem CodedValue="Deoxyribonucleic Acid" nciodm:ExtCodeID="C135409">
                    <nciodm:CDISCSynonym>Deoxyribonucleic Acid</nciodm:CDISCSynonym>
                    <nciodm:CDISCDefinition>A measurement of a targeted deoxyribonucleic acid (DNA) in a biological specimen.</nciodm:CDISCDefinition>
                    <nciodm:PreferredTerm>Deoxyribonucleic Acid Measurement</nciodm:PreferredTerm>
                </EnumeratedItem>
                <EnumeratedItem CodedValue="Ebola Virus IgM Antibody" nciodm:ExtCodeID="C135410">
                    <nciodm:CDISCSynonym>Ebola Virus IgM Antibody</nciodm:CDISCSynonym>
                    <nciodm:CDISCDefinition>A measurement of the Ebola virus IgM antibodies in a biological specimen.</nciodm:CDISCDefinition>
                    <nciodm:PreferredTerm>Ebola Virus IgM Antibody Measurement</nciodm:PreferredTerm>
                </EnumeratedItem>
                <EnumeratedItem CodedValue="Haemophilus" nciodm:ExtCodeID="C147458">
                    <nciodm:CDISCSynonym>Haemophilus</nciodm:CDISCSynonym>
                    <nciodm:CDISCDefinition>A measurement of the organisms that are not assigned to the species level but are assigned to the Haemophilus genus level in a biological specimen.</nciodm:CDISCDefinition>
                    <nciodm:PreferredTerm>Haemophilus Measurement</nciodm:PreferredTerm>
                </EnumeratedItem>
                <EnumeratedItem CodedValue="Haemophilus influenzae" nciodm:ExtCodeID="C147457">
                    <nciodm:CDISCSynonym>H. influenzae</nciodm:CDISCSynonym>
                    <nciodm:CDISCSynonym>Haemophilus influenzae</nciodm:CDISCSynonym>
                    <nciodm:CDISCDefinition>A measurement of the Haemophilus influenza virus in a biological specimen.</nciodm:CDISCDefinition>
                    <nciodm:PreferredTerm>Haemophilus influenzae Measurement</nciodm:PreferredTerm>
                </EnumeratedItem>
                <EnumeratedItem CodedValue="Hepatitis C Virus RNA" nciodm:ExtCodeID="C142330">
                    <nciodm:CDISCSynonym>Hepatitis C Virus RNA</nciodm:CDISCSynonym>
                    <nciodm:CDISCDefinition>A measurement of the Hepatitis C virus RNA in a biological specimen.</nciodm:CDISCDefinition>
                    <nciodm:PreferredTerm>Hepatitis C Virus RNA Measurement</nciodm:PreferredTerm>
                </EnumeratedItem>
                <EnumeratedItem CodedValue="Hepatitis E Virus RNA" nciodm:ExtCodeID="C142331">
                    <nciodm:CDISCSynonym>Hepatitis E Virus RNA</nciodm:CDISCSynonym>
                    <nciodm:CDISCDefinition>A measurement of the Hepatitis E virus RNA in a biological specimen.</nciodm:CDISCDefinition>
                    <nciodm:PreferredTerm>Hepatitis E Virus RNA Measurement</nciodm:PreferredTerm>
                </EnumeratedItem>
                <EnumeratedItem CodedValue="Influenza A Antigen" nciodm:ExtCodeID="C120677">
                    <nciodm:CDISCSynonym>Influenza A Antigen</nciodm:CDISCSynonym>
                    <nciodm:CDISCDefinition>A measurement of the influenza A antigen in a biological specimen.</nciodm:CDISCDefinition>
                    <nciodm:PreferredTerm>Influenza A Antigen Measurement</nciodm:PreferredTerm>
                </EnumeratedItem>
                <EnumeratedItem CodedValue="Influenza A/B Antigen" nciodm:ExtCodeID="C120678">
                    <nciodm:CDISCSynonym>Influenza A/B Antigen</nciodm:CDISCSynonym>
                    <nciodm:CDISCDefinition>A measurement of the influenza A/B antigen in a biological specimen.</nciodm:CDISCDefinition>
                    <nciodm:PreferredTerm>Influenza A/B Antigen Measurement</nciodm:PreferredTerm>
                </EnumeratedItem>
                <EnumeratedItem CodedValue="Influenza B Antigen" nciodm:ExtCodeID="C120679">
                    <nciodm:CDISCSynonym>Influenza B Antigen</nciodm:CDISCSynonym>
                    <nciodm:CDISCDefinition>A measurement of the influenza B antigen in a biological specimen.</nciodm:CDISCDefinition>
                    <nciodm:PreferredTerm>Influenza B Antigen Measurement</nciodm:PreferredTerm>
                </EnumeratedItem>
                <EnumeratedItem CodedValue="Microbial Organism Identification" nciodm:ExtCodeID="C132416">
                    <nciodm:CDISCSynonym>Microbial Organism Identification</nciodm:CDISCSynonym>
                    <nciodm:CDISCDefinition>The identification of the type of a microbial organism in a biological specimen.</nciodm:CDISCDefinition>
                    <nciodm:PreferredTerm>Microoganism Identification</nciodm:PreferredTerm>
                </EnumeratedItem>
                <EnumeratedItem CodedValue="Mycobacterium tuberculosis" nciodm:ExtCodeID="C128982">
                    <nciodm:CDISCSynonym>Mycobacterium tuberculosis</nciodm:CDISCSynonym>
                    <nciodm:CDISCDefinition>A measurement of the organisms that are assigned to the Mycobacterium tuberculosis species in a biological specimen.</nciodm:CDISCDefinition>
                    <nciodm:PreferredTerm>Mycobacterium Tuberculosis Measurement</nciodm:PreferredTerm>
                </EnumeratedItem>
                <EnumeratedItem CodedValue="Mycobacterium tuberculosis Complex" nciodm:ExtCodeID="C128983">
                    <nciodm:CDISCSynonym>Mycobacterium tuberculosis Complex</nciodm:CDISCSynonym>
                    <nciodm:CDISCDefinition>A measurement of the organisms assignable to the Mycobacterium tuberculosis complex in a biological specimen.</nciodm:CDISCDefinition>
                    <nciodm:PreferredTerm>Mycobacterium tuberculosis Complex Measurement</nciodm:PreferredTerm>
                </EnumeratedItem>
                <EnumeratedItem CodedValue="Nontuberculous Mycobacteria" nciodm:ExtCodeID="C147459">
                    <nciodm:CDISCSynonym>NTM</nciodm:CDISCSynonym>
                    <nciodm:CDISCSynonym>Non-tuberculous mycobacteria</nciodm:CDISCSynonym>
                    <nciodm:CDISCSynonym>Nontuberculous Mycobacteria</nciodm:CDISCSynonym>
                    <nciodm:CDISCDefinition>A measurement of the organisms that are assigned to the Mycobacterium genus but are not tuberculosis or leprosy-causing in a biological specimen.</nciodm:CDISCDefinition>
                    <nciodm:PreferredTerm>Nontuberculous Mycobacteria Measurement</nciodm:PreferredTerm>
                </EnumeratedItem>
                <EnumeratedItem CodedValue="P. aeruginosa, Mucoid" nciodm:ExtCodeID="C139108">
                    <nciodm:CDISCSynonym>P. aeruginosa, Mucoid</nciodm:CDISCSynonym>
                    <nciodm:CDISCSynonym>Pseudomonas aeruginosa, Mucoid</nciodm:CDISCSynonym>
                    <nciodm:CDISCDefinition>A measurement of the mucoid strain of Pseudomonas aeruginosa in a biological specimen.</nciodm:CDISCDefinition>
                    <nciodm:PreferredTerm>Mucoid Pseudomonas aeruginosa Measurement</nciodm:PreferredTerm>
                </EnumeratedItem>
                <EnumeratedItem CodedValue="P. aeruginosa, Non-mucoid" nciodm:ExtCodeID="C139107">
                    <nciodm:CDISCSynonym>P. aeruginosa, Non-Mucoid</nciodm:CDISCSynonym>
                    <nciodm:CDISCSynonym>Pseudomonas aeruginosa, Non-Mucoid</nciodm:CDISCSynonym>
                    <nciodm:CDISCDefinition>A measurement of the non-mucoid strain of Pseudomonas aeruginosa in a biological specimen.</nciodm:CDISCDefinition>
                    <nciodm:PreferredTerm>Non-Mucoid Pseudomonas aeruginosa Measurement</nciodm:PreferredTerm>
                </EnumeratedItem>
                <EnumeratedItem CodedValue="P. aeruginosa, Small-colony Variant" nciodm:ExtCodeID="C139109">
                    <nciodm:CDISCSynonym>P. aeruginosa, Small-colony Variant</nciodm:CDISCSynonym>
                    <nciodm:CDISCSynonym>Pseudomonas aeruginosa, SCV</nciodm:CDISCSynonym>
                    <nciodm:CDISCSynonym>Pseudomonas aeruginosa, Small-colony Variant</nciodm:CDISCSynonym>
                    <nciodm:CDISCDefinition>A measurement of the small-colony variant strain of Pseudomonas aeruginosa in a biological specimen.</nciodm:CDISCDefinition>
                    <nciodm:PreferredTerm>Small-Colony Variant Pseudomonas aeruginosa Measurement</nciodm:PreferredTerm>
                </EnumeratedItem>
                <EnumeratedItem CodedValue="Plasmodium knowlesi, Asexual" nciodm:ExtCodeID="C132417">
                    <nciodm:CDISCSynonym>Plasmodium knowlesi, Asexual</nciodm:CDISCSynonym>
                    <nciodm:CDISCDefinition>A measurement of the Plasmodium knowlesi in an asexual replication stage in a biological specimen.</nciodm:CDISCDefinition>
                    <nciodm:PreferredTerm>Asexual Plasmodium knowlesi Measurement</nciodm:PreferredTerm>
                </EnumeratedItem>
                <EnumeratedItem CodedValue="Plasmodium knowlesi, Sexual" nciodm:ExtCodeID="C132418">
                    <nciodm:CDISCSynonym>Plasmodium knowlesi, Sexual</nciodm:CDISCSynonym>
                    <nciodm:CDISCDefinition>A measurement of the Plasmodium knowlesi in a sexual replication stage in a biological specimen.</nciodm:CDISCDefinition>
                    <nciodm:PreferredTerm>Sexual Plasmodium knowlesi Measurement</nciodm:PreferredTerm>
                </EnumeratedItem>
                <EnumeratedItem CodedValue="S. aureus, Methicillin-resistant" nciodm:ExtCodeID="C139110">
                    <nciodm:CDISCSynonym>S. aureus, Methicillin-Resistant</nciodm:CDISCSynonym>
                    <nciodm:CDISCSynonym>Staphylococcus aureus, Methicillin-Resistant</nciodm:CDISCSynonym>
                    <nciodm:CDISCDefinition>A measurement of the methicillin-resistant strain of Staphylococcus aureus in a biological specimen.</nciodm:CDISCDefinition>
                    <nciodm:PreferredTerm>Methicillin-resistant Staphylococcus aureus Measurement</nciodm:PreferredTerm>
                </EnumeratedItem>
                <EnumeratedItem CodedValue="S. aureus, Methicillin-susceptible" nciodm:ExtCodeID="C139111">
                    <nciodm:CDISCSynonym>S. aureus, Methicillin-Susceptible</nciodm:CDISCSynonym>
                    <nciodm:CDISCSynonym>Staphylococcus aureus, Methicillin-Susceptible</nciodm:CDISCSynonym>
                    <nciodm:CDISCDefinition>A measurement of the methicillin-susceptible strain of Staphylococcus aureus in a biological specimen.</nciodm:CDISCDefinition>
                    <nciodm:PreferredTerm>Methicillin-susceptible Staphylococcus aureus Measurement</nciodm:PreferredTerm>
                </EnumeratedItem>
                <EnumeratedItem CodedValue="Staphylococcus aureus" nciodm:ExtCodeID="C147460">
                    <nciodm:CDISCSynonym>S. aureus</nciodm:CDISCSynonym>
                    <nciodm:CDISCSynonym>Staphylococcus aureus</nciodm:CDISCSynonym>
                    <nciodm:CDISCDefinition>A measurement of the Staphylococcus aureus in a biological specimen.</nciodm:CDISCDefinition>
                    <nciodm:PreferredTerm>Staphylococcus aureus Measurement</nciodm:PreferredTerm>
                </EnumeratedItem>
                <EnumeratedItem CodedValue="Stenotrophomonas maltophilia" nciodm:ExtCodeID="C139112">
                    <nciodm:CDISCSynonym>Stenotrophomonas maltophilia</nciodm:CDISCSynonym>
                    <nciodm:CDISCDefinition>A measurement of the organisms that are assigned to the Stenotrophomonas maltophilia species in a biological specimen.</nciodm:CDISCDefinition>
                    <nciodm:PreferredTerm>Stenotrophomonas maltophilia Measurement</nciodm:PreferredTerm>
                </EnumeratedItem>
                <EnumeratedItem CodedValue="Zaire Ebolavirus" nciodm:ExtCodeID="C132420">
                    <nciodm:CDISCSynonym>Zaire Ebolavirus</nciodm:CDISCSynonym>
                    <nciodm:CDISCDefinition>A measurement of the Zaire ebolavirus present in a biological specimen.</nciodm:CDISCDefinition>
                    <nciodm:PreferredTerm>Zaire Ebolavirus Measurement</nciodm:PreferredTerm>
                </EnumeratedItem>
                <nciodm:CDISCSubmissionValue>MBTEST</nciodm:CDISCSubmissionValue>
                <nciodm:CDISCSynonym>Microbiology Test Name</nciodm:CDISCSynonym>
                <nciodm:PreferredTerm>CDISC SDTM Microbiology Test Name Terminology</nciodm:PreferredTerm>
            </CodeList>
            
