<CodeList xmlns="http://www.cdisc.org/ns/odm/v1.3" xmlns:nciodm="http://ncicb.nci.nih.gov/xml/odm/EVS/CDISC" xmlns:xs="http://www.w3.org/2001/XMLSchema-instance" OID="CL.C113858.MFIS TESTCD" Name="Modified Fatigue Impact Scale Test Code" DataType="text" nciodm:ExtCodeID="C113858" nciodm:CodeListExtensible="No">
                <Description>
                    <TranslatedText xml:lang="en">Modified Fatigue Impact Scale test code.</TranslatedText>
                </Description>
                <EnumeratedItem CodedValue="MFIS0101" nciodm:ExtCodeID="C113967">
                    <nciodm:CDISCSynonym>MFIS01-I Have Been Less Alert</nciodm:CDISCSynonym>
                    <nciodm:CDISCDefinition>Modified Fatigue Impact Scale - Because of my fatigue during the past 4 weeks I have been less alert.</nciodm:CDISCDefinition>
                    <nciodm:PreferredTerm>MFIS - Have Been Less Alert</nciodm:PreferredTerm>
                </EnumeratedItem>
                <EnumeratedItem CodedValue="MFIS0102" nciodm:ExtCodeID="C113968">
                    <nciodm:CDISCSynonym>MFIS01-Have Difficulty Paying Attention</nciodm:CDISCSynonym>
                    <nciodm:CDISCDefinition>Modified Fatigue Impact Scale - Because of my fatigue during the past 4 weeks I have had difficulty paying attention for long periods of time.</nciodm:CDISCDefinition>
                    <nciodm:PreferredTerm>MFIS - Have Difficulty Paying Attention for Long Time</nciodm:PreferredTerm>
                </EnumeratedItem>
                <EnumeratedItem CodedValue="MFIS0103" nciodm:ExtCodeID="C113969">
                    <nciodm:CDISCSynonym>MFIS01-Have Been Unable to Think Clearly</nciodm:CDISCSynonym>
                    <nciodm:CDISCDefinition>Modified Fatigue Impact Scale - Because of my fatigue during the past 4 weeks I have been unable to think clearly.</nciodm:CDISCDefinition>
                    <nciodm:PreferredTerm>MFIS - Unable to Think Clearly</nciodm:PreferredTerm>
                </EnumeratedItem>
                <EnumeratedItem CodedValue="MFIS0104" nciodm:ExtCodeID="C113970">
                    <nciodm:CDISCSynonym>MFIS01-Been Clumsy and Uncoordinated</nciodm:CDISCSynonym>
                    <nciodm:CDISCDefinition>Modified Fatigue Impact Scale - Because of my fatigue during the past 4 weeks I have been clumsy and uncoordinated.</nciodm:CDISCDefinition>
                    <nciodm:PreferredTerm>MFIS - Have Been Clumsy and Uncoordinated</nciodm:PreferredTerm>
                </EnumeratedItem>
                <EnumeratedItem CodedValue="MFIS0105" nciodm:ExtCodeID="C113971">
                    <nciodm:CDISCSynonym>MFIS01-I Have Been Forgetful</nciodm:CDISCSynonym>
                    <nciodm:CDISCDefinition>Modified Fatigue Impact Scale - Because of my fatigue during the past 4 weeks I have been forgetful.</nciodm:CDISCDefinition>
                    <nciodm:PreferredTerm>MFIS - Have Been Forgetful</nciodm:PreferredTerm>
                </EnumeratedItem>
                <EnumeratedItem CodedValue="MFIS0106" nciodm:ExtCodeID="C113972">
                    <nciodm:CDISCSynonym>MFIS01-Pace Myself in Physical Activity</nciodm:CDISCSynonym>
                    <nciodm:CDISCDefinition>Modified Fatigue Impact Scale - Because of my fatigue during the past 4 weeks I have had to pace myself in my physical activities.</nciodm:CDISCDefinition>
                    <nciodm:PreferredTerm>MFIS - Pace Myself in Physical Activities</nciodm:PreferredTerm>
                </EnumeratedItem>
                <EnumeratedItem CodedValue="MFIS0107" nciodm:ExtCodeID="C113973">
                    <nciodm:CDISCSynonym>MFIS01-Less Motivated, Physical Effort</nciodm:CDISCSynonym>
                    <nciodm:CDISCDefinition>Modified Fatigue Impact Scale - Because of my fatigue during the past 4 weeks I have been less motivated to do anything that requires physical effort.</nciodm:CDISCDefinition>
                    <nciodm:PreferredTerm>MFIS - Less Motivated to Do Anything That Requires Physical Effort</nciodm:PreferredTerm>
                </EnumeratedItem>
                <EnumeratedItem CodedValue="MFIS0108" nciodm:ExtCodeID="C113974">
                    <nciodm:CDISCSynonym>MFIS01-Less Motivated, Social Activity</nciodm:CDISCSynonym>
                    <nciodm:CDISCDefinition>Modified Fatigue Impact Scale - Because of my fatigue during the past 4 weeks I have been less motivated to participate in social activities.</nciodm:CDISCDefinition>
                    <nciodm:PreferredTerm>MFIS - Less Motivated to Participate in Social Activities</nciodm:PreferredTerm>
                </EnumeratedItem>
                <EnumeratedItem CodedValue="MFIS0109" nciodm:ExtCodeID="C113975">
                    <nciodm:CDISCSynonym>MFIS01-Limited in Ability Away From Home</nciodm:CDISCSynonym>
                    <nciodm:CDISCDefinition>Modified Fatigue Impact Scale - Because of my fatigue during the past 4 weeks I have been limited in my ability to do things away from home.</nciodm:CDISCDefinition>
                    <nciodm:PreferredTerm>MFIS - Limited in My Abilities to Do Things Away From Home</nciodm:PreferredTerm>
                </EnumeratedItem>
                <EnumeratedItem CodedValue="MFIS0110" nciodm:ExtCodeID="C113976">
                    <nciodm:CDISCSynonym>MFIS01-Trouble Maintain Physical Effort</nciodm:CDISCSynonym>
                    <nciodm:CDISCDefinition>Modified Fatigue Impact Scale - Because of my fatigue during the past 4 weeks I have had trouble maintaining physical effort for long periods.</nciodm:CDISCDefinition>
                    <nciodm:PreferredTerm>MFIS - Have Trouble Maintain Physical Effort</nciodm:PreferredTerm>
                </EnumeratedItem>
                <EnumeratedItem CodedValue="MFIS0111" nciodm:ExtCodeID="C113977">
                    <nciodm:CDISCSynonym>MFIS01-Have Difficulty Making Decisions</nciodm:CDISCSynonym>
                    <nciodm:CDISCDefinition>Modified Fatigue Impact Scale - Because of my fatigue during the past 4 weeks I have had difficulty making decisions.</nciodm:CDISCDefinition>
                    <nciodm:PreferredTerm>MFIS - Have Difficulty Making Decisions</nciodm:PreferredTerm>
                </EnumeratedItem>
                <EnumeratedItem CodedValue="MFIS0112" nciodm:ExtCodeID="C113978">
                    <nciodm:CDISCSynonym>MFIS01-Less Motivated, Thinking</nciodm:CDISCSynonym>
                    <nciodm:CDISCDefinition>Modified Fatigue Impact Scale - Because of my fatigue during the past 4 weeks I have been less motivated to do anything that requires thinking.</nciodm:CDISCDefinition>
                    <nciodm:PreferredTerm>MFIS - Less Motivated to Do Anything That Requires Thinking</nciodm:PreferredTerm>
                </EnumeratedItem>
                <EnumeratedItem CodedValue="MFIS0113" nciodm:ExtCodeID="C113979">
                    <nciodm:CDISCSynonym>MFIS01-My Muscles Have Felt Weak</nciodm:CDISCSynonym>
                    <nciodm:CDISCDefinition>Modified Fatigue Impact Scale - Because of my fatigue during the past 4 weeks my muscles have felt weak.</nciodm:CDISCDefinition>
                    <nciodm:PreferredTerm>MFIS - Muscles Have Felt Weak</nciodm:PreferredTerm>
                </EnumeratedItem>
                <EnumeratedItem CodedValue="MFIS0114" nciodm:ExtCodeID="C113980">
                    <nciodm:CDISCSynonym>MFIS01-Been Physically Uncomfortable</nciodm:CDISCSynonym>
                    <nciodm:CDISCDefinition>Modified Fatigue Impact Scale - Because of my fatigue during the past 4 weeks I have been physically uncomfortable.</nciodm:CDISCDefinition>
                    <nciodm:PreferredTerm>MFIS - Been Physically Uncomfortable</nciodm:PreferredTerm>
                </EnumeratedItem>
                <EnumeratedItem CodedValue="MFIS0115" nciodm:ExtCodeID="C113981">
                    <nciodm:CDISCSynonym>MFIS01-Trouble Finishing Thinking Tasks</nciodm:CDISCSynonym>
                    <nciodm:CDISCDefinition>Modified Fatigue Impact Scale - Because of my fatigue during the past 4 weeks I have had trouble finishing tasks that require thinking.</nciodm:CDISCDefinition>
                    <nciodm:PreferredTerm>MFIS - Have Trouble Finishing Tasks That Require Thinking</nciodm:PreferredTerm>
                </EnumeratedItem>
                <EnumeratedItem CodedValue="MFIS0116" nciodm:ExtCodeID="C113982">
                    <nciodm:CDISCSynonym>MFIS01-Difficulty Organizing My Thoughts</nciodm:CDISCSynonym>
                    <nciodm:CDISCDefinition>Modified Fatigue Impact Scale - Because of my fatigue during the past 4 weeks I have had difficulty organizing my thoughts when doing things at home or at work.</nciodm:CDISCDefinition>
                    <nciodm:PreferredTerm>MFIS - Difficulty Organizing My Thoughts</nciodm:PreferredTerm>
                </EnumeratedItem>
                <EnumeratedItem CodedValue="MFIS0117" nciodm:ExtCodeID="C113983">
                    <nciodm:CDISCSynonym>MFIS01-Less Able Complete Physical Tasks</nciodm:CDISCSynonym>
                    <nciodm:CDISCDefinition>Modified Fatigue Impact Scale - Because of my fatigue during the past 4 weeks I have been less able to complete tasks that require physical effort.</nciodm:CDISCDefinition>
                    <nciodm:PreferredTerm>MFIS - Less Able to Complete Tasks That Require Physical Effort</nciodm:PreferredTerm>
                </EnumeratedItem>
                <EnumeratedItem CodedValue="MFIS0118" nciodm:ExtCodeID="C113984">
                    <nciodm:CDISCSynonym>MFIS01-My Thinking Has Been Slowed Down</nciodm:CDISCSynonym>
                    <nciodm:CDISCDefinition>Modified Fatigue Impact Scale - Because of my fatigue during the past 4 weeks my thinking has been slowed down.</nciodm:CDISCDefinition>
                    <nciodm:PreferredTerm>MFIS - My Thinking Has Been Slowed Down</nciodm:PreferredTerm>
                </EnumeratedItem>
                <EnumeratedItem CodedValue="MFIS0119" nciodm:ExtCodeID="C113985">
                    <nciodm:CDISCSynonym>MFIS01-I Have Had Trouble Concentrating</nciodm:CDISCSynonym>
                    <nciodm:CDISCDefinition>Modified Fatigue Impact Scale - Because of my fatigue during the past 4 weeks I have had trouble concentrating.</nciodm:CDISCDefinition>
                    <nciodm:PreferredTerm>MFIS - Have Trouble Concentrating</nciodm:PreferredTerm>
                </EnumeratedItem>
                <EnumeratedItem CodedValue="MFIS0120" nciodm:ExtCodeID="C113986">
                    <nciodm:CDISCSynonym>MFIS01-Have Limited My Physical Activity</nciodm:CDISCSynonym>
                    <nciodm:CDISCDefinition>Modified Fatigue Impact Scale - Because of my fatigue during the past 4 weeks I have limited my physical activities.</nciodm:CDISCDefinition>
                    <nciodm:PreferredTerm>MFIS - Have Limited My Physical Activities</nciodm:PreferredTerm>
                </EnumeratedItem>
                <EnumeratedItem CodedValue="MFIS0121" nciodm:ExtCodeID="C113987">
                    <nciodm:CDISCSynonym>MFIS01-Need to Rest More Often or Longer</nciodm:CDISCSynonym>
                    <nciodm:CDISCDefinition>Modified Fatigue Impact Scale - Because of my fatigue during the past 4 weeks I have needed to rest more often or for longer periods.</nciodm:CDISCDefinition>
                    <nciodm:PreferredTerm>MFIS - Need to Rest More Often or Longer</nciodm:PreferredTerm>
                </EnumeratedItem>
                <nciodm:CDISCSubmissionValue>MFIS TESTCD</nciodm:CDISCSubmissionValue>
                <nciodm:CDISCSynonym>Modified Fatigue Impact Scale Test Code</nciodm:CDISCSynonym>
                <nciodm:PreferredTerm>CDISC Questionnaire Modified Fatigue Impact Scale Test Code Terminology</nciodm:PreferredTerm>
            </CodeList>
            
