<CodeList xmlns="http://www.cdisc.org/ns/odm/v1.3" xmlns:nciodm="http://ncicb.nci.nih.gov/xml/odm/EVS/CDISC" xmlns:xs="http://www.w3.org/2001/XMLSchema-instance" OID="CL.C119060.ADT01TC" Name="Alcohol Use Disorder Identification Test: Self-Report Version Questionnaire Test Code" DataType="text" nciodm:ExtCodeID="C119060" nciodm:CodeListExtensible="No">
                <Description>
                    <TranslatedText xml:lang="en">Alcohol Use Disorder Identification Test: Self-Report Version test code.</TranslatedText>
                </Description>
                <EnumeratedItem CodedValue="ADT0101" nciodm:ExtCodeID="C119108">
                    <nciodm:CDISCSynonym>ADT01-How Often Drink Alcohol</nciodm:CDISCSynonym>
                    <nciodm:CDISCDefinition>Alcohol Use Disorder Identification Test: Self-Report Version - How often do you have a drink containing alcohol?</nciodm:CDISCDefinition>
                    <nciodm:PreferredTerm>AUDIT - How Often Have Alcohol Drink</nciodm:PreferredTerm>
                </EnumeratedItem>
                <EnumeratedItem CodedValue="ADT0102" nciodm:ExtCodeID="C119109">
                    <nciodm:CDISCSynonym>ADT01-Alcohol Drinks on a Typical Day</nciodm:CDISCSynonym>
                    <nciodm:CDISCDefinition>Alcohol Use Disorder Identification Test: Self-Report Version - How many drinks containing alcohol do you have on a typical day when you are drinking?</nciodm:CDISCDefinition>
                    <nciodm:PreferredTerm>AUDIT - How Many Alcohol Drinks on a Typical Day</nciodm:PreferredTerm>
                </EnumeratedItem>
                <EnumeratedItem CodedValue="ADT0103" nciodm:ExtCodeID="C119110">
                    <nciodm:CDISCSynonym>ADT01-Six or More Drinks One Occasion</nciodm:CDISCSynonym>
                    <nciodm:CDISCDefinition>Alcohol Use Disorder Identification Test: Self-Report Version - How often do you have six or more drinks on one occasion?</nciodm:CDISCDefinition>
                    <nciodm:PreferredTerm>AUDIT - How Often Have Six or More Drinks</nciodm:PreferredTerm>
                </EnumeratedItem>
                <EnumeratedItem CodedValue="ADT0104" nciodm:ExtCodeID="C119111">
                    <nciodm:CDISCSynonym>ADT01-Not Able Stop Drinking Once Start</nciodm:CDISCSynonym>
                    <nciodm:CDISCDefinition>Alcohol Use Disorder Identification Test: Self-Report Version - How often during the last year have you found that you were not able to stop drinking once you had started?</nciodm:CDISCDefinition>
                    <nciodm:PreferredTerm>AUDIT - How Often Last Year You Found Not Able to Stop Drinking</nciodm:PreferredTerm>
                </EnumeratedItem>
                <EnumeratedItem CodedValue="ADT0105" nciodm:ExtCodeID="C119112">
                    <nciodm:CDISCSynonym>ADT01-Failed to Do as Expected</nciodm:CDISCSynonym>
                    <nciodm:CDISCDefinition>Alcohol Use Disorder Identification Test: Self-Report Version - How often during the last year have you failed to do what was normally expected of you because of drinking?</nciodm:CDISCDefinition>
                    <nciodm:PreferredTerm>AUDIT - How Often Last Year You Failed to Do Normally Expected of You</nciodm:PreferredTerm>
                </EnumeratedItem>
                <EnumeratedItem CodedValue="ADT0106" nciodm:ExtCodeID="C119113">
                    <nciodm:CDISCSynonym>ADT01-Need Drink Morning After Drinking</nciodm:CDISCSynonym>
                    <nciodm:CDISCDefinition>Alcohol Use Disorder Identification Test: Self-Report Version - How often during the last year have you needed a first drink in the morning to get yourself going after a heavy drinking session?</nciodm:CDISCDefinition>
                    <nciodm:PreferredTerm>AUDIT - How Often Last Year Need a Drink in the Morning to Get Going</nciodm:PreferredTerm>
                </EnumeratedItem>
                <EnumeratedItem CodedValue="ADT0107" nciodm:ExtCodeID="C119114">
                    <nciodm:CDISCSynonym>ADT01-Feeling of Guilt or Remorse</nciodm:CDISCSynonym>
                    <nciodm:CDISCDefinition>Alcohol Use Disorder Identification Test: Self-Report Version - How often during the last year have you had a feeling of guilt or remorse after drinking?</nciodm:CDISCDefinition>
                    <nciodm:PreferredTerm>AUDIT - How Often Last Year You Feel Guilt or Remorse After Drinking</nciodm:PreferredTerm>
                </EnumeratedItem>
                <EnumeratedItem CodedValue="ADT0108" nciodm:ExtCodeID="C119115">
                    <nciodm:CDISCSynonym>ADT01-Unable to Remember What Happened</nciodm:CDISCSynonym>
                    <nciodm:CDISCDefinition>Alcohol Use Disorder Identification Test: Self-Report Version - How often during the last year have you been unable to remember what happened the night before because of your drinking?</nciodm:CDISCDefinition>
                    <nciodm:PreferredTerm>AUDIT - How Often Last Year You Unable to Remember What Happened the Night Before</nciodm:PreferredTerm>
                </EnumeratedItem>
                <EnumeratedItem CodedValue="ADT0109" nciodm:ExtCodeID="C119116">
                    <nciodm:CDISCSynonym>ADT01-Injured Because of Your Drinking</nciodm:CDISCSynonym>
                    <nciodm:CDISCDefinition>Alcohol Use Disorder Identification Test: Self-Report Version - Have you or someone else been injured because of your drinking?</nciodm:CDISCDefinition>
                    <nciodm:PreferredTerm>AUDIT - Injured Because of Drinking</nciodm:PreferredTerm>
                </EnumeratedItem>
                <EnumeratedItem CodedValue="ADT0110" nciodm:ExtCodeID="C119117">
                    <nciodm:CDISCSynonym>ADT01-Suggested to Cut Down</nciodm:CDISCSynonym>
                    <nciodm:CDISCDefinition>Alcohol Use Disorder Identification Test: Self-Report Version - Has a relative, friend, doctor, or other health care worker been concerned about your drinking or suggested you cut down?</nciodm:CDISCDefinition>
                    <nciodm:PreferredTerm>AUDIT - Concerned About Your Drinking</nciodm:PreferredTerm>
                </EnumeratedItem>
                <EnumeratedItem CodedValue="ADT0111" nciodm:ExtCodeID="C119118">
                    <nciodm:CDISCSynonym>ADT01-Total</nciodm:CDISCSynonym>
                    <nciodm:CDISCDefinition>Alcohol Use Disorder Identification Test: Self-Report Version - Total.</nciodm:CDISCDefinition>
                    <nciodm:PreferredTerm>AUDIT - Total</nciodm:PreferredTerm>
                </EnumeratedItem>
                <nciodm:CDISCSubmissionValue>ADT01TC</nciodm:CDISCSubmissionValue>
                <nciodm:CDISCSynonym>Alcohol Use Disorder Identification Test: Self-Report Version Questionnaire Test Code</nciodm:CDISCSynonym>
                <nciodm:PreferredTerm>CDISC Questionnaire AUDIT-SR Test Code Terminology</nciodm:PreferredTerm>
            </CodeList>
            
