<CodeList xmlns="http://www.cdisc.org/ns/odm/v1.3" xmlns:nciodm="http://ncicb.nci.nih.gov/xml/odm/EVS/CDISC" xmlns:xs="http://www.w3.org/2001/XMLSchema-instance" OID="CL.C135679.BEBQ01TN" Name="Baby Eating Behaviour Questionnaire Concurrent Version Questionnaire Test Name" DataType="text" nciodm:ExtCodeID="C135679" nciodm:CodeListExtensible="No">
                <Description>
                    <TranslatedText xml:lang="en">Baby Eating Behaviour Questionnaire Concurrent Version test name.</TranslatedText>
                </Description>
                <EnumeratedItem CodedValue="BEBQ01-Baby Becomes Distressed Feeding" nciodm:ExtCodeID="C135780">
                    <nciodm:CDISCSynonym>BEBQ01-Baby Becomes Distressed Feeding</nciodm:CDISCSynonym>
                    <nciodm:CDISCDefinition>Baby Eating Behaviour Questionnaire - Concurrent - My baby becomes distressed while feeding.</nciodm:CDISCDefinition>
                    <nciodm:PreferredTerm>BEBQ Concurrent Version - Baby Becomes Distressed Feeding</nciodm:PreferredTerm>
                </EnumeratedItem>
                <EnumeratedItem CodedValue="BEBQ01-Baby Enjoys Feeding Time" nciodm:ExtCodeID="C135791">
                    <nciodm:CDISCSynonym>BEBQ01-Baby Enjoys Feeding Time</nciodm:CDISCSynonym>
                    <nciodm:CDISCDefinition>Baby Eating Behaviour Questionnaire - Concurrent - My baby enjoys feeding time.</nciodm:CDISCDefinition>
                    <nciodm:PreferredTerm>BEBQ Concurrent Version - Baby Enjoys Feeding Time</nciodm:PreferredTerm>
                </EnumeratedItem>
                <EnumeratedItem CodedValue="BEBQ01-Baby Feeds Slowly" nciodm:ExtCodeID="C135785">
                    <nciodm:CDISCSynonym>BEBQ01-Baby Feeds Slowly</nciodm:CDISCSynonym>
                    <nciodm:CDISCDefinition>Baby Eating Behaviour Questionnaire - Concurrent - My baby feeds slowly.</nciodm:CDISCDefinition>
                    <nciodm:PreferredTerm>BEBQ Concurrent Version - Baby Feeds Slowly</nciodm:PreferredTerm>
                </EnumeratedItem>
                <EnumeratedItem CodedValue="BEBQ01-Baby Finishes Feeding Quickly" nciodm:ExtCodeID="C135779">
                    <nciodm:CDISCSynonym>BEBQ01-Baby Finishes Feeding Quickly</nciodm:CDISCSynonym>
                    <nciodm:CDISCDefinition>Baby Eating Behaviour Questionnaire - Concurrent - My baby finishes feeding quickly.</nciodm:CDISCDefinition>
                    <nciodm:PreferredTerm>BEBQ Concurrent Version - Baby Finishes Feeding Quickly</nciodm:PreferredTerm>
                </EnumeratedItem>
                <EnumeratedItem CodedValue="BEBQ01-Baby Frequently Wants More Milk" nciodm:ExtCodeID="C135776">
                    <nciodm:CDISCSynonym>BEBQ01-Baby Frequently Wants More Milk</nciodm:CDISCSynonym>
                    <nciodm:CDISCDefinition>Baby Eating Behaviour Questionnaire - Concurrent - My baby frequently wants more milk than I provide.</nciodm:CDISCDefinition>
                    <nciodm:PreferredTerm>BEBQ Concurrent Version - Baby Frequently Wants More Milk</nciodm:PreferredTerm>
                </EnumeratedItem>
                <EnumeratedItem CodedValue="BEBQ01-Baby Gets Full Up Easily" nciodm:ExtCodeID="C135781">
                    <nciodm:CDISCSynonym>BEBQ01-Baby Gets Full Up Easily</nciodm:CDISCSynonym>
                    <nciodm:CDISCDefinition>Baby Eating Behaviour Questionnaire - Concurrent - My baby gets full up easily.</nciodm:CDISCDefinition>
                    <nciodm:PreferredTerm>BEBQ Concurrent Version - Baby Gets Full Up Easily</nciodm:PreferredTerm>
                </EnumeratedItem>
                <EnumeratedItem CodedValue="BEBQ01-Baby Has a Big Appetite" nciodm:ExtCodeID="C135778">
                    <nciodm:CDISCSynonym>BEBQ01-Baby Has a Big Appetite</nciodm:CDISCSynonym>
                    <nciodm:CDISCDefinition>Baby Eating Behaviour Questionnaire - Concurrent - My baby has a big appetite.</nciodm:CDISCDefinition>
                    <nciodm:PreferredTerm>BEBQ Concurrent Version - Baby Has a Big Appetite</nciodm:PreferredTerm>
                </EnumeratedItem>
                <EnumeratedItem CodedValue="BEBQ01-Baby Is Always Demanding a Feed" nciodm:ExtCodeID="C135788">
                    <nciodm:CDISCSynonym>BEBQ01-Baby Is Always Demanding a Feed</nciodm:CDISCSynonym>
                    <nciodm:CDISCDefinition>Baby Eating Behaviour Questionnaire - Concurrent - My baby is always demanding a feed.</nciodm:CDISCDefinition>
                    <nciodm:PreferredTerm>BEBQ Concurrent Version - Baby Is Always Demanding a Feed</nciodm:PreferredTerm>
                </EnumeratedItem>
                <EnumeratedItem CodedValue="BEBQ01-Baby Loves Milk" nciodm:ExtCodeID="C135777">
                    <nciodm:CDISCSynonym>BEBQ01-Baby Loves Milk</nciodm:CDISCSynonym>
                    <nciodm:CDISCDefinition>Baby Eating Behaviour Questionnaire - Concurrent - My baby loves milk.</nciodm:CDISCDefinition>
                    <nciodm:PreferredTerm>BEBQ Concurrent Version - Baby Loves Milk</nciodm:PreferredTerm>
                </EnumeratedItem>
                <EnumeratedItem CodedValue="BEBQ01-Baby Seems Contented Feeding" nciodm:ExtCodeID="C135775">
                    <nciodm:CDISCSynonym>BEBQ01-Baby Seems Contented Feeding</nciodm:CDISCSynonym>
                    <nciodm:CDISCDefinition>Baby Eating Behaviour Questionnaire - Concurrent - My baby seems contented while feeding.</nciodm:CDISCDefinition>
                    <nciodm:PreferredTerm>BEBQ Concurrent Version - Baby Seems Contented Feeding</nciodm:PreferredTerm>
                </EnumeratedItem>
                <EnumeratedItem CodedValue="BEBQ01-Baby Sucks More and More Slowly" nciodm:ExtCodeID="C135789">
                    <nciodm:CDISCSynonym>BEBQ01-Baby Sucks More and More Slowly</nciodm:CDISCSynonym>
                    <nciodm:CDISCDefinition>Baby Eating Behaviour Questionnaire - Concurrent - My baby sucks more and more slowly during the course of a feed.</nciodm:CDISCDefinition>
                    <nciodm:PreferredTerm>BEBQ Concurrent Version - Baby Sucks More and More Slowly</nciodm:PreferredTerm>
                </EnumeratedItem>
                <EnumeratedItem CodedValue="BEBQ01-Baby Takes More Than 30 Minutes" nciodm:ExtCodeID="C135783">
                    <nciodm:CDISCSynonym>BEBQ01-Baby Takes More Than 30 Minutes</nciodm:CDISCSynonym>
                    <nciodm:CDISCDefinition>Baby Eating Behaviour Questionnaire - Concurrent - My baby takes more than 30 minutes to finish feeding.</nciodm:CDISCDefinition>
                    <nciodm:PreferredTerm>BEBQ Concurrent Version - Baby Takes More Than 30 Minutes</nciodm:PreferredTerm>
                </EnumeratedItem>
                <EnumeratedItem CodedValue="BEBQ01-Baby Would Always Be Feeding" nciodm:ExtCodeID="C135790">
                    <nciodm:CDISCSynonym>BEBQ01-Baby Would Always Be Feeding</nciodm:CDISCSynonym>
                    <nciodm:CDISCDefinition>Baby Eating Behaviour Questionnaire - Concurrent - If given the chance, my baby would always be feeding.</nciodm:CDISCDefinition>
                    <nciodm:PreferredTerm>BEBQ Concurrent Version - Baby Would Always Be Feeding</nciodm:PreferredTerm>
                </EnumeratedItem>
                <EnumeratedItem CodedValue="BEBQ01-Baby Would Take Too Much Milk" nciodm:ExtCodeID="C135782">
                    <nciodm:CDISCSynonym>BEBQ01-Baby Would Take Too Much Milk</nciodm:CDISCSynonym>
                    <nciodm:CDISCDefinition>Baby Eating Behaviour Questionnaire - Concurrent - If allowed to, my baby would take too much milk.</nciodm:CDISCDefinition>
                    <nciodm:PreferredTerm>BEBQ Concurrent Version - Baby Would Take Too Much Milk</nciodm:PreferredTerm>
                </EnumeratedItem>
                <EnumeratedItem CodedValue="BEBQ01-Difficult Manage Complete Feed" nciodm:ExtCodeID="C135787">
                    <nciodm:CDISCSynonym>BEBQ01-Difficult Manage Complete Feed</nciodm:CDISCSynonym>
                    <nciodm:CDISCDefinition>Baby Eating Behaviour Questionnaire - Concurrent - My baby finds it difficult to manage a complete feed.</nciodm:CDISCDefinition>
                    <nciodm:PreferredTerm>BEBQ Concurrent Version - Difficult Manage Complete Feed</nciodm:PreferredTerm>
                </EnumeratedItem>
                <EnumeratedItem CodedValue="BEBQ01-Gets Full Before Taking All Milk" nciodm:ExtCodeID="C135784">
                    <nciodm:CDISCSynonym>BEBQ01-Gets Full Before Taking All Milk</nciodm:CDISCSynonym>
                    <nciodm:CDISCDefinition>Baby Eating Behaviour Questionnaire - Concurrent - My baby gets full before taking all the milk I think he/she should have.</nciodm:CDISCDefinition>
                    <nciodm:PreferredTerm>BEBQ Concurrent Version - Gets Full Before Taking All Milk</nciodm:PreferredTerm>
                </EnumeratedItem>
                <EnumeratedItem CodedValue="BEBQ01-Just Eaten Is Happy to Feed Again" nciodm:ExtCodeID="C135786">
                    <nciodm:CDISCSynonym>BEBQ01-Just Eaten Is Happy to Feed Again</nciodm:CDISCSynonym>
                    <nciodm:CDISCDefinition>Baby Eating Behaviour Questionnaire - Concurrent - Even when my baby has just eaten well he/she is happy to feed again if offered.</nciodm:CDISCDefinition>
                    <nciodm:PreferredTerm>BEBQ Concurrent Version - Just Eaten Is Happy to Feed Again</nciodm:PreferredTerm>
                </EnumeratedItem>
                <EnumeratedItem CodedValue="BEBQ01-Take a Feed Within 30 Minutes" nciodm:ExtCodeID="C135792">
                    <nciodm:CDISCSynonym>BEBQ01-Take a Feed Within 30 Minutes</nciodm:CDISCSynonym>
                    <nciodm:CDISCDefinition>Baby Eating Behaviour Questionnaire - Concurrent - My baby can easily take a feed within 30 minutes of the last one.</nciodm:CDISCDefinition>
                    <nciodm:PreferredTerm>BEBQ Concurrent Version - Take a Feed Within 30 Minutes</nciodm:PreferredTerm>
                </EnumeratedItem>
                <nciodm:CDISCSubmissionValue>BEBQ01TN</nciodm:CDISCSubmissionValue>
                <nciodm:CDISCSynonym>Baby Eating Behaviour Questionnaire Concurrent Version Questionnaire Test Name</nciodm:CDISCSynonym>
                <nciodm:PreferredTerm>CDISC Questionnaire BEBQ Concurrent Version Test Name Terminology</nciodm:PreferredTerm>
            </CodeList>
            
