<CodeList xmlns="http://www.cdisc.org/ns/odm/v1.3" xmlns:nciodm="http://ncicb.nci.nih.gov/xml/odm/EVS/CDISC" xmlns:xs="http://www.w3.org/2001/XMLSchema-instance" OID="CL.C111345.FAQ-NACC VERSION TEST" Name="Functional Activities Questionnaire-NACC Version Test Name" DataType="text" nciodm:ExtCodeID="C111345" nciodm:CodeListExtensible="No">
                <Description>
                    <TranslatedText xml:lang="en">Functional Activities Questionnaire-NACC Version test name.</TranslatedText>
                </Description>
                <EnumeratedItem CodedValue="FAQ02-Assembling" nciodm:ExtCodeID="C111511">
                    <nciodm:CDISCSynonym>FAQ02-Assembling</nciodm:CDISCSynonym>
                    <nciodm:CDISCDefinition>Functional Activities Questionnaire-NACC - Assembling tax records, business affairs, or other papers.</nciodm:CDISCDefinition>
                    <nciodm:PreferredTerm>FAQ-NACC Version - Assemble</nciodm:PreferredTerm>
                </EnumeratedItem>
                <EnumeratedItem CodedValue="FAQ02-Heat Water/Make Coffee/Stove Off" nciodm:ExtCodeID="C111514">
                    <nciodm:CDISCSynonym>FAQ02-Heat Water/Make Coffee/Stove Off</nciodm:CDISCSynonym>
                    <nciodm:CDISCDefinition>Functional Activities Questionnaire-NACC - Heating water, making a cup of coffee, turning off the stove.</nciodm:CDISCDefinition>
                    <nciodm:PreferredTerm>FAQ-NACC Version - Heat water, Make Coffee, Turn Off Stove</nciodm:PreferredTerm>
                </EnumeratedItem>
                <EnumeratedItem CodedValue="FAQ02-Keeping Track of Current Events" nciodm:ExtCodeID="C111516">
                    <nciodm:CDISCSynonym>FAQ02-Keeping Track of Current Events</nciodm:CDISCSynonym>
                    <nciodm:CDISCDefinition>Functional Activities Questionnaire-NACC - Keeping track of current events.</nciodm:CDISCDefinition>
                    <nciodm:PreferredTerm>FAQ-NACC Version - Keep Track of Current Events</nciodm:PreferredTerm>
                </EnumeratedItem>
                <EnumeratedItem CodedValue="FAQ02-Paying Attention" nciodm:ExtCodeID="C111517">
                    <nciodm:CDISCSynonym>FAQ02-Paying Attention</nciodm:CDISCSynonym>
                    <nciodm:CDISCDefinition>Functional Activities Questionnaire-NACC - Paying attention to and understanding a TV program, book, or magazine.</nciodm:CDISCDefinition>
                    <nciodm:PreferredTerm>FAQ-NACC Version - Pay Attention, Understand, Discuss</nciodm:PreferredTerm>
                </EnumeratedItem>
                <EnumeratedItem CodedValue="FAQ02-Playing a Game of Skill" nciodm:ExtCodeID="C111513">
                    <nciodm:CDISCSynonym>FAQ02-Playing a Game of Skill</nciodm:CDISCSynonym>
                    <nciodm:CDISCDefinition>Functional Activities Questionnaire-NACC - Playing a game of skill such as bridge or chess, working on a hobby.</nciodm:CDISCDefinition>
                    <nciodm:PreferredTerm>FAQ-NACC Version - Play Game of Skill, Work on Hobby</nciodm:PreferredTerm>
                </EnumeratedItem>
                <EnumeratedItem CodedValue="FAQ02-Preparing a Balanced Meal" nciodm:ExtCodeID="C111515">
                    <nciodm:CDISCSynonym>FAQ02-Preparing a Balanced Meal</nciodm:CDISCSynonym>
                    <nciodm:CDISCDefinition>Functional Activities Questionnaire-NACC - Preparing a balanced meal.</nciodm:CDISCDefinition>
                    <nciodm:PreferredTerm>FAQ-NACC Version - Prepare a Meal</nciodm:PreferredTerm>
                </EnumeratedItem>
                <EnumeratedItem CodedValue="FAQ02-Remembering" nciodm:ExtCodeID="C111518">
                    <nciodm:CDISCSynonym>FAQ02-Remembering</nciodm:CDISCSynonym>
                    <nciodm:CDISCDefinition>Functional Activities Questionnaire-NACC - Remembering appointments, family occasions, holidays, medications.</nciodm:CDISCDefinition>
                    <nciodm:PreferredTerm>FAQ-NACC Version - Remember</nciodm:PreferredTerm>
                </EnumeratedItem>
                <EnumeratedItem CodedValue="FAQ02-Shopping Alone" nciodm:ExtCodeID="C111512">
                    <nciodm:CDISCSynonym>FAQ02-Shopping Alone</nciodm:CDISCSynonym>
                    <nciodm:CDISCDefinition>Functional Activities Questionnaire-NACC - Shopping alone for clothes, household necessities, or groceries.</nciodm:CDISCDefinition>
                    <nciodm:PreferredTerm>FAQ-NACC Version - Shop Alone</nciodm:PreferredTerm>
                </EnumeratedItem>
                <EnumeratedItem CodedValue="FAQ02-Traveling" nciodm:ExtCodeID="C111519">
                    <nciodm:CDISCSynonym>FAQ02-Traveling</nciodm:CDISCSynonym>
                    <nciodm:CDISCDefinition>Functional Activities Questionnaire-NACC - Traveling out of the neighborhood, driving, or arranging to take public transportation.</nciodm:CDISCDefinition>
                    <nciodm:PreferredTerm>FAQ-NACC Version - Travel</nciodm:PreferredTerm>
                </EnumeratedItem>
                <EnumeratedItem CodedValue="FAQ02-Write Checks/Pay Bills/Checkbook" nciodm:ExtCodeID="C111510">
                    <nciodm:CDISCSynonym>FAQ02-Write Checks/Pay Bills/Checkbook</nciodm:CDISCSynonym>
                    <nciodm:CDISCDefinition>Functional Activities Questionnaire-NACC - Writing checks, paying bills, or balancing a checkbook.</nciodm:CDISCDefinition>
                    <nciodm:PreferredTerm>FAQ-NACC Version - Write checks, Pay bills, Balance checkbook</nciodm:PreferredTerm>
                </EnumeratedItem>
                <nciodm:CDISCSubmissionValue>FAQ-NACC VERSION TEST</nciodm:CDISCSubmissionValue>
                <nciodm:CDISCSynonym>Functional Activities Questionnaire-NACC Version Test Name</nciodm:CDISCSynonym>
                <nciodm:PreferredTerm>CDISC Questionnaire FAQ-NACC Version Test Name Terminology</nciodm:PreferredTerm>
            </CodeList>
            
