<CodeList xmlns="http://www.cdisc.org/ns/odm/v1.3" xmlns:nciodm="http://ncicb.nci.nih.gov/xml/odm/EVS/CDISC" xmlns:xs="http://www.w3.org/2001/XMLSchema-instance" OID="CL.C130256.FAC018TN" Name="Functional Assessment of Cancer Therapy-Lymphoma Version 4 Questionnaire Test Name" DataType="text" nciodm:ExtCodeID="C130256" nciodm:CodeListExtensible="No">
                <Description>
                    <TranslatedText xml:lang="en">Functional Assessment of Cancer Therapy-Lymphoma Version 4 test name.</TranslatedText>
                </Description>
                <EnumeratedItem CodedValue="FAC018-Bothered by Lumps or Swelling" nciodm:ExtCodeID="C130531">
                    <nciodm:CDISCSynonym>FAC018-Bothered by Lumps or Swelling</nciodm:CDISCSynonym>
                    <nciodm:CDISCDefinition>Functional Assessment of Cancer Therapy-Lymphoma Version 4 - Additional Concerns: I am bothered by lumps or swelling in certain parts of my body (e.g., neck, armpits, or groin).</nciodm:CDISCDefinition>
                    <nciodm:PreferredTerm>FACT-LYM Version 4 - Bothered by Lumps or Swelling</nciodm:PreferredTerm>
                </EnumeratedItem>
                <EnumeratedItem CodedValue="FAC018-Bothered by Treatment Side Effect" nciodm:ExtCodeID="C130507">
                    <nciodm:CDISCSynonym>FAC018-Bothered by Treatment Side Effect</nciodm:CDISCSynonym>
                    <nciodm:CDISCDefinition>Functional Assessment of Cancer Therapy-Lymphoma Version 4 - Physical Well-Being: I am bothered by side effects of treatment.</nciodm:CDISCDefinition>
                    <nciodm:PreferredTerm>FACT-LYM Version 4 - Bothered by Treatment Side Effect</nciodm:PreferredTerm>
                </EnumeratedItem>
                <EnumeratedItem CodedValue="FAC018-Certain Parts of Body Have Pain" nciodm:ExtCodeID="C130530">
                    <nciodm:CDISCSynonym>FAC018-Certain Parts of Body Have Pain</nciodm:CDISCSynonym>
                    <nciodm:CDISCDefinition>Functional Assessment of Cancer Therapy-Lymphoma Version 4 - Additional Concerns: I have certain parts of my body where I experience pain.</nciodm:CDISCDefinition>
                    <nciodm:PreferredTerm>FACT-LYM Version 4 - Certain Parts of Body Have Pain</nciodm:PreferredTerm>
                </EnumeratedItem>
                <EnumeratedItem CodedValue="FAC018-Content With Quality of My Life" nciodm:ExtCodeID="C130529">
                    <nciodm:CDISCSynonym>FAC018-Content With Quality of My Life</nciodm:CDISCSynonym>
                    <nciodm:CDISCDefinition>Functional Assessment of Cancer Therapy-Lymphoma Version 4 - Functional Well-Being: I am content with the quality of my life right now.</nciodm:CDISCDefinition>
                    <nciodm:PreferredTerm>FACT-LYM Version 4 - Content With Quality of My Life</nciodm:PreferredTerm>
                </EnumeratedItem>
                <EnumeratedItem CodedValue="FAC018-Difficulty Planning for Future" nciodm:ExtCodeID="C130544">
                    <nciodm:CDISCSynonym>FAC018-Difficulty Planning for Future</nciodm:CDISCSynonym>
                    <nciodm:CDISCDefinition>Functional Assessment of Cancer Therapy-Lymphoma Version 4 - Additional Concerns: Because of my illness, I have difficulty planning for the future.</nciodm:CDISCDefinition>
                    <nciodm:PreferredTerm>FACT-LYM Version 4 - Difficulty Planning for Future</nciodm:PreferredTerm>
                </EnumeratedItem>
                <EnumeratedItem CodedValue="FAC018-Enjoy Things I Usually Do for Fun" nciodm:ExtCodeID="C130528">
                    <nciodm:CDISCSynonym>FAC018-Enjoy Things I Usually Do for Fun</nciodm:CDISCSynonym>
                    <nciodm:CDISCDefinition>Functional Assessment of Cancer Therapy-Lymphoma Version 4 - Functional Well-Being: I am enjoying the things I usually do for fun.</nciodm:CDISCDefinition>
                    <nciodm:PreferredTerm>FACT-LYM Version 4 - Enjoy Things I Usually Do for Fun</nciodm:PreferredTerm>
                </EnumeratedItem>
                <EnumeratedItem CodedValue="FAC018-Feel Isolated Because of Illness" nciodm:ExtCodeID="C130542">
                    <nciodm:CDISCSynonym>FAC018-Feel Isolated Because of Illness</nciodm:CDISCSynonym>
                    <nciodm:CDISCDefinition>Functional Assessment of Cancer Therapy-Lymphoma Version 4 - Additional Concerns: I feel isolated from others because of my illness or treatment.</nciodm:CDISCDefinition>
                    <nciodm:PreferredTerm>FACT-LYM Version 4 - Feel Isolated Because of Illness</nciodm:PreferredTerm>
                </EnumeratedItem>
                <EnumeratedItem CodedValue="FAC018-Get Emotional Support From Family" nciodm:ExtCodeID="C130511">
                    <nciodm:CDISCSynonym>FAC018-Get Emotional Support From Family</nciodm:CDISCSynonym>
                    <nciodm:CDISCDefinition>Functional Assessment of Cancer Therapy-Lymphoma Version 4 - Social/Family Well-Being: I get emotional support from my family.</nciodm:CDISCDefinition>
                    <nciodm:PreferredTerm>FACT-LYM Version 4 - Get Emotional Support From Family</nciodm:PreferredTerm>
                </EnumeratedItem>
                <EnumeratedItem CodedValue="FAC018-I Am Able to Enjoy Life" nciodm:ExtCodeID="C130525">
                    <nciodm:CDISCSynonym>FAC018-I Am Able to Enjoy Life</nciodm:CDISCSynonym>
                    <nciodm:CDISCDefinition>Functional Assessment of Cancer Therapy-Lymphoma Version 4 - Functional Well-Being: I am able to enjoy life.</nciodm:CDISCDefinition>
                    <nciodm:PreferredTerm>FACT-LYM Version 4 - I Am Able to Enjoy Life</nciodm:PreferredTerm>
                </EnumeratedItem>
                <EnumeratedItem CodedValue="FAC018-I Am Able to Work" nciodm:ExtCodeID="C130523">
                    <nciodm:CDISCSynonym>FAC018-I Am Able to Work</nciodm:CDISCSynonym>
                    <nciodm:CDISCDefinition>Functional Assessment of Cancer Therapy-Lymphoma Version 4 - Functional Well-Being: I am able to work (include work at home).</nciodm:CDISCDefinition>
                    <nciodm:PreferredTerm>FACT-LYM Version 4 - I Am Able to Work</nciodm:PreferredTerm>
                </EnumeratedItem>
                <EnumeratedItem CodedValue="FAC018-I Am Bothered by Fevers" nciodm:ExtCodeID="C130532">
                    <nciodm:CDISCSynonym>FAC018-I Am Bothered by Fevers</nciodm:CDISCSynonym>
                    <nciodm:CDISCDefinition>Functional Assessment of Cancer Therapy-Lymphoma Version 4 - Additional Concerns: I am bothered by fevers (episodes of high body temperature).</nciodm:CDISCDefinition>
                    <nciodm:PreferredTerm>FACT-LYM Version 4 - I Am Bothered by Fevers</nciodm:PreferredTerm>
                </EnumeratedItem>
                <EnumeratedItem CodedValue="FAC018-I Am Bothered by Itching" nciodm:ExtCodeID="C130534">
                    <nciodm:CDISCSynonym>FAC018-I Am Bothered by Itching</nciodm:CDISCSynonym>
                    <nciodm:CDISCDefinition>Functional Assessment of Cancer Therapy-Lymphoma Version 4 - Additional Concerns: I am bothered by itching.</nciodm:CDISCDefinition>
                    <nciodm:PreferredTerm>FACT-LYM Version 4 - I Am Bothered by Itching</nciodm:PreferredTerm>
                </EnumeratedItem>
                <EnumeratedItem CodedValue="FAC018-I Am Forced to Spend Time in Bed" nciodm:ExtCodeID="C130509">
                    <nciodm:CDISCSynonym>FAC018-I Am Forced to Spend Time in Bed</nciodm:CDISCSynonym>
                    <nciodm:CDISCDefinition>Functional Assessment of Cancer Therapy-Lymphoma Version 4 - Physical Well-Being: I am forced to spend time in bed.</nciodm:CDISCDefinition>
                    <nciodm:PreferredTerm>FACT-LYM Version 4 - I Am Forced to Spend Time in Bed</nciodm:PreferredTerm>
                </EnumeratedItem>
                <EnumeratedItem CodedValue="FAC018-I Am Losing Weight" nciodm:ExtCodeID="C130537">
                    <nciodm:CDISCSynonym>FAC018-I Am Losing Weight</nciodm:CDISCSynonym>
                    <nciodm:CDISCDefinition>Functional Assessment of Cancer Therapy-Lymphoma Version 4 - Additional Concerns: I am losing weight.</nciodm:CDISCDefinition>
                    <nciodm:PreferredTerm>FACT-LYM Version 4 - I Am Losing Weight</nciodm:PreferredTerm>
                </EnumeratedItem>
                <EnumeratedItem CodedValue="FAC018-I Am Satisfied With My Sex Life" nciodm:ExtCodeID="C130516">
                    <nciodm:CDISCSynonym>FAC018-I Am Satisfied With My Sex Life</nciodm:CDISCSynonym>
                    <nciodm:CDISCDefinition>Functional Assessment of Cancer Therapy-Lymphoma Version 4 - Social/Family Well-Being: I am satisfied with my sex life.</nciodm:CDISCDefinition>
                    <nciodm:PreferredTerm>FACT-LYM Version 4 - I Am Satisfied With My Sex Life</nciodm:PreferredTerm>
                </EnumeratedItem>
                <EnumeratedItem CodedValue="FAC018-I Am Sleeping Well" nciodm:ExtCodeID="C130527">
                    <nciodm:CDISCSynonym>FAC018-I Am Sleeping Well</nciodm:CDISCSynonym>
                    <nciodm:CDISCDefinition>Functional Assessment of Cancer Therapy-Lymphoma Version 4 - Functional Well-Being: I am sleeping well.</nciodm:CDISCDefinition>
                    <nciodm:PreferredTerm>FACT-LYM Version 4 - I Am Sleeping Well</nciodm:PreferredTerm>
                </EnumeratedItem>
                <EnumeratedItem CodedValue="FAC018-I Feel Close to My Friends" nciodm:ExtCodeID="C130510">
                    <nciodm:CDISCSynonym>FAC018-I Feel Close to My Friends</nciodm:CDISCSynonym>
                    <nciodm:CDISCDefinition>Functional Assessment of Cancer Therapy-Lymphoma Version 4 - Social/Family Well-Being: I feel close to my friends.</nciodm:CDISCDefinition>
                    <nciodm:PreferredTerm>FACT-LYM Version 4 - I Feel Close to My Friends</nciodm:PreferredTerm>
                </EnumeratedItem>
                <EnumeratedItem CodedValue="FAC018-I Feel Close to My Partner" nciodm:ExtCodeID="C130515">
                    <nciodm:CDISCSynonym>FAC018-I Feel Close to My Partner</nciodm:CDISCSynonym>
                    <nciodm:CDISCDefinition>Functional Assessment of Cancer Therapy-Lymphoma Version 4 - Social/Family Well-Being: I feel close to my partner (or the person who is my main support).</nciodm:CDISCDefinition>
                    <nciodm:PreferredTerm>FACT-LYM Version 4 - I Feel Close to My Partner</nciodm:PreferredTerm>
                </EnumeratedItem>
                <EnumeratedItem CodedValue="FAC018-I Feel Ill" nciodm:ExtCodeID="C130508">
                    <nciodm:CDISCSynonym>FAC018-I Feel Ill</nciodm:CDISCSynonym>
                    <nciodm:CDISCDefinition>Functional Assessment of Cancer Therapy-Lymphoma Version 4 - Physical Well-Being: I feel ill.</nciodm:CDISCDefinition>
                    <nciodm:PreferredTerm>FACT-LYM Version 4 - I Feel Ill</nciodm:PreferredTerm>
                </EnumeratedItem>
                <EnumeratedItem CodedValue="FAC018-I Feel Nervous" nciodm:ExtCodeID="C130520">
                    <nciodm:CDISCSynonym>FAC018-I Feel Nervous</nciodm:CDISCSynonym>
                    <nciodm:CDISCDefinition>Functional Assessment of Cancer Therapy-Lymphoma Version 4 - Emotional Well-Being: I feel nervous.</nciodm:CDISCDefinition>
                    <nciodm:PreferredTerm>FACT-LYM Version 4 - I Feel Nervous</nciodm:PreferredTerm>
                </EnumeratedItem>
                <EnumeratedItem CodedValue="FAC018-I Feel Sad" nciodm:ExtCodeID="C130517">
                    <nciodm:CDISCSynonym>FAC018-I Feel Sad</nciodm:CDISCSynonym>
                    <nciodm:CDISCDefinition>Functional Assessment of Cancer Therapy-Lymphoma Version 4 - Emotional Well-Being: I feel sad.</nciodm:CDISCDefinition>
                    <nciodm:PreferredTerm>FACT-LYM Version 4 - I Feel Sad</nciodm:PreferredTerm>
                </EnumeratedItem>
                <EnumeratedItem CodedValue="FAC018-I Get Support From My Friends" nciodm:ExtCodeID="C130512">
                    <nciodm:CDISCSynonym>FAC018-I Get Support From My Friends</nciodm:CDISCSynonym>
                    <nciodm:CDISCDefinition>Functional Assessment of Cancer Therapy-Lymphoma Version 4 - Social/Family Well-Being: I get support from my friends.</nciodm:CDISCDefinition>
                    <nciodm:PreferredTerm>FACT-LYM Version 4 - I Get Support From My Friends</nciodm:PreferredTerm>
                </EnumeratedItem>
                <EnumeratedItem CodedValue="FAC018-I Get Tired Easily" nciodm:ExtCodeID="C130536">
                    <nciodm:CDISCSynonym>FAC018-I Get Tired Easily</nciodm:CDISCSynonym>
                    <nciodm:CDISCDefinition>Functional Assessment of Cancer Therapy-Lymphoma Version 4 - Additional Concerns: I get tired easily.</nciodm:CDISCDefinition>
                    <nciodm:PreferredTerm>FACT-LYM Version 4 - I Get Tired Easily</nciodm:PreferredTerm>
                </EnumeratedItem>
                <EnumeratedItem CodedValue="FAC018-I Have a Lack of Energy" nciodm:ExtCodeID="C130503">
                    <nciodm:CDISCSynonym>FAC018-I Have a Lack of Energy</nciodm:CDISCSynonym>
                    <nciodm:CDISCDefinition>Functional Assessment of Cancer Therapy-Lymphoma Version 4 - Physical Well-Being: I have a lack of energy.</nciodm:CDISCDefinition>
                    <nciodm:PreferredTerm>FACT-LYM Version 4 - I Have a Lack of Energy</nciodm:PreferredTerm>
                </EnumeratedItem>
                <EnumeratedItem CodedValue="FAC018-I Have a Loss of Appetite" nciodm:ExtCodeID="C130538">
                    <nciodm:CDISCSynonym>FAC018-I Have a Loss of Appetite</nciodm:CDISCSynonym>
                    <nciodm:CDISCDefinition>Functional Assessment of Cancer Therapy-Lymphoma Version 4 - Additional Concerns: I have a loss of appetite.</nciodm:CDISCDefinition>
                    <nciodm:PreferredTerm>FACT-LYM Version 4 - I Have a Loss of Appetite</nciodm:PreferredTerm>
                </EnumeratedItem>
                <EnumeratedItem CodedValue="FAC018-I Have Accepted My Illness" nciodm:ExtCodeID="C130526">
                    <nciodm:CDISCSynonym>FAC018-I Have Accepted My Illness</nciodm:CDISCSynonym>
                    <nciodm:CDISCDefinition>Functional Assessment of Cancer Therapy-Lymphoma Version 4 - Functional Well-Being: I have accepted my illness.</nciodm:CDISCDefinition>
                    <nciodm:PreferredTerm>FACT-LYM Version 4 - I Have Accepted My Illness</nciodm:PreferredTerm>
                </EnumeratedItem>
                <EnumeratedItem CodedValue="FAC018-I Have Emotional Ups and Downs" nciodm:ExtCodeID="C130543">
                    <nciodm:CDISCSynonym>FAC018-I Have Emotional Ups and Downs</nciodm:CDISCSynonym>
                    <nciodm:CDISCDefinition>Functional Assessment of Cancer Therapy-Lymphoma Version 4 - Additional Concerns: I have emotional ups and downs.</nciodm:CDISCDefinition>
                    <nciodm:PreferredTerm>FACT-LYM Version 4 - I Have Emotional Ups and Downs</nciodm:PreferredTerm>
                </EnumeratedItem>
                <EnumeratedItem CodedValue="FAC018-I Have Nausea" nciodm:ExtCodeID="C130504">
                    <nciodm:CDISCSynonym>FAC018-I Have Nausea</nciodm:CDISCSynonym>
                    <nciodm:CDISCDefinition>Functional Assessment of Cancer Therapy-Lymphoma Version 4 - Physical Well-Being: I have nausea.</nciodm:CDISCDefinition>
                    <nciodm:PreferredTerm>FACT-LYM Version 4 - I Have Nausea</nciodm:PreferredTerm>
                </EnumeratedItem>
                <EnumeratedItem CodedValue="FAC018-I Have Night Sweats" nciodm:ExtCodeID="C130533">
                    <nciodm:CDISCSynonym>FAC018-I Have Night Sweats</nciodm:CDISCSynonym>
                    <nciodm:CDISCDefinition>Functional Assessment of Cancer Therapy-Lymphoma Version 4 - Additional Concerns: I have night sweats.</nciodm:CDISCDefinition>
                    <nciodm:PreferredTerm>FACT-LYM Version 4 - I Have Night Sweats</nciodm:PreferredTerm>
                </EnumeratedItem>
                <EnumeratedItem CodedValue="FAC018-I Have Pain" nciodm:ExtCodeID="C130506">
                    <nciodm:CDISCSynonym>FAC018-I Have Pain</nciodm:CDISCSynonym>
                    <nciodm:CDISCDefinition>Functional Assessment of Cancer Therapy-Lymphoma Version 4 - Physical Well-Being: I have pain.</nciodm:CDISCDefinition>
                    <nciodm:PreferredTerm>FACT-LYM Version 4 - I Have Pain</nciodm:PreferredTerm>
                </EnumeratedItem>
                <EnumeratedItem CodedValue="FAC018-I Have Trouble Concentrating" nciodm:ExtCodeID="C130539">
                    <nciodm:CDISCSynonym>FAC018-I Have Trouble Concentrating</nciodm:CDISCSynonym>
                    <nciodm:CDISCDefinition>Functional Assessment of Cancer Therapy-Lymphoma Version 4 - Additional Concerns: I have trouble concentrating.</nciodm:CDISCDefinition>
                    <nciodm:PreferredTerm>FACT-LYM Version 4 - I Have Trouble Concentrating</nciodm:PreferredTerm>
                </EnumeratedItem>
                <EnumeratedItem CodedValue="FAC018-I Have Trouble Sleeping at Night" nciodm:ExtCodeID="C130535">
                    <nciodm:CDISCSynonym>FAC018-I Have Trouble Sleeping at Night</nciodm:CDISCSynonym>
                    <nciodm:CDISCDefinition>Functional Assessment of Cancer Therapy-Lymphoma Version 4 - Additional Concerns: I have trouble sleeping at night.</nciodm:CDISCDefinition>
                    <nciodm:PreferredTerm>FACT-LYM Version 4 - I Have Trouble Sleeping at Night</nciodm:PreferredTerm>
                </EnumeratedItem>
                <EnumeratedItem CodedValue="FAC018-I Worry About Dying" nciodm:ExtCodeID="C130521">
                    <nciodm:CDISCSynonym>FAC018-I Worry About Dying</nciodm:CDISCSynonym>
                    <nciodm:CDISCDefinition>Functional Assessment of Cancer Therapy-Lymphoma Version 4 - Emotional Well-Being: I worry about dying.</nciodm:CDISCDefinition>
                    <nciodm:PreferredTerm>FACT-LYM Version 4 - I Worry About Dying</nciodm:PreferredTerm>
                </EnumeratedItem>
                <EnumeratedItem CodedValue="FAC018-I Worry About Getting Infections" nciodm:ExtCodeID="C130540">
                    <nciodm:CDISCSynonym>FAC018-I Worry About Getting Infections</nciodm:CDISCSynonym>
                    <nciodm:CDISCDefinition>Functional Assessment of Cancer Therapy-Lymphoma Version 4 - Additional Concerns: I worry about getting infections.</nciodm:CDISCDefinition>
                    <nciodm:PreferredTerm>FACT-LYM Version 4 - I Worry About Getting Infections</nciodm:PreferredTerm>
                </EnumeratedItem>
                <EnumeratedItem CodedValue="FAC018-Losing Hope Against Illness" nciodm:ExtCodeID="C130519">
                    <nciodm:CDISCSynonym>FAC018-Losing Hope Against Illness</nciodm:CDISCSynonym>
                    <nciodm:CDISCDefinition>Functional Assessment of Cancer Therapy-Lymphoma Version 4 - Emotional Well-Being: I am losing hope in the fight against my illness.</nciodm:CDISCDefinition>
                    <nciodm:PreferredTerm>FACT-LYM Version 4 - Losing Hope Against Illness</nciodm:PreferredTerm>
                </EnumeratedItem>
                <EnumeratedItem CodedValue="FAC018-My Family Has Accepted My Illness" nciodm:ExtCodeID="C130513">
                    <nciodm:CDISCSynonym>FAC018-My Family Has Accepted My Illness</nciodm:CDISCSynonym>
                    <nciodm:CDISCDefinition>Functional Assessment of Cancer Therapy-Lymphoma Version 4 - Social/Family Well-Being: My family has accepted my illness.</nciodm:CDISCDefinition>
                    <nciodm:PreferredTerm>FACT-LYM Version 4 - My Family Has Accepted My Illness</nciodm:PreferredTerm>
                </EnumeratedItem>
                <EnumeratedItem CodedValue="FAC018-My Work Is Fulfilling" nciodm:ExtCodeID="C130524">
                    <nciodm:CDISCSynonym>FAC018-My Work Is Fulfilling</nciodm:CDISCSynonym>
                    <nciodm:CDISCDefinition>Functional Assessment of Cancer Therapy-Lymphoma Version 4 - Functional Well-Being: My work (include work at home) is fulfilling.</nciodm:CDISCDefinition>
                    <nciodm:PreferredTerm>FACT-LYM Version 4 - My Work Is Fulfilling</nciodm:PreferredTerm>
                </EnumeratedItem>
                <EnumeratedItem CodedValue="FAC018-Satisfied Communication Illness" nciodm:ExtCodeID="C130514">
                    <nciodm:CDISCSynonym>FAC018-Satisfied Communication Illness</nciodm:CDISCSynonym>
                    <nciodm:CDISCDefinition>Functional Assessment of Cancer Therapy-Lymphoma Version 4 - Social/Family Well-Being: I am satisfied with family communication about my illness.</nciodm:CDISCDefinition>
                    <nciodm:PreferredTerm>FACT-LYM Version 4 - Satisfied With Communication About Illness</nciodm:PreferredTerm>
                </EnumeratedItem>
                <EnumeratedItem CodedValue="FAC018-Satisfied With How I Am Coping" nciodm:ExtCodeID="C130518">
                    <nciodm:CDISCSynonym>FAC018-Satisfied With How I Am Coping</nciodm:CDISCSynonym>
                    <nciodm:CDISCDefinition>Functional Assessment of Cancer Therapy-Lymphoma Version 4 - Emotional Well-Being: I am satisfied with how I am coping with my illness.</nciodm:CDISCDefinition>
                    <nciodm:PreferredTerm>FACT-LYM Version 4 - Satisfied With How I Am Coping</nciodm:PreferredTerm>
                </EnumeratedItem>
                <EnumeratedItem CodedValue="FAC018-Trouble Meeting Needs of Family" nciodm:ExtCodeID="C130505">
                    <nciodm:CDISCSynonym>FAC018-Trouble Meeting Needs of Family</nciodm:CDISCSynonym>
                    <nciodm:CDISCDefinition>Functional Assessment of Cancer Therapy-Lymphoma Version 4 - Physical Well-Being: Because of my physical condition, I have trouble meeting the needs of my family.</nciodm:CDISCDefinition>
                    <nciodm:PreferredTerm>FACT-LYM Version 4 - Trouble Meeting Needs of Family</nciodm:PreferredTerm>
                </EnumeratedItem>
                <EnumeratedItem CodedValue="FAC018-Worry I Might Get New Symptoms" nciodm:ExtCodeID="C130541">
                    <nciodm:CDISCSynonym>FAC018-Worry I Might Get New Symptoms</nciodm:CDISCSynonym>
                    <nciodm:CDISCDefinition>Functional Assessment of Cancer Therapy-Lymphoma Version 4 - Additional Concerns: I worry that I might get new symptoms of my illness.</nciodm:CDISCDefinition>
                    <nciodm:PreferredTerm>FACT-LYM Version 4 - Worry I Might Get New Symptoms</nciodm:PreferredTerm>
                </EnumeratedItem>
                <EnumeratedItem CodedValue="FAC018-Worry My Condition Will Get Worse" nciodm:ExtCodeID="C130522">
                    <nciodm:CDISCSynonym>FAC018-Worry My Condition Will Get Worse</nciodm:CDISCSynonym>
                    <nciodm:CDISCDefinition>Functional Assessment of Cancer Therapy-Lymphoma Version 4 - Emotional Well-Being: I worry that my condition will get worse.</nciodm:CDISCDefinition>
                    <nciodm:PreferredTerm>FACT-LYM Version 4 - Worry My Condition Will Get Worse</nciodm:PreferredTerm>
                </EnumeratedItem>
                <nciodm:CDISCSubmissionValue>FAC018TN</nciodm:CDISCSubmissionValue>
                <nciodm:CDISCSynonym>Functional Assessment of Cancer Therapy-Lymphoma Version 4 Questionnaire Test Name</nciodm:CDISCSynonym>
                <nciodm:PreferredTerm>CDISC Questionnaire FACT-LYM Version 4 Test Name Terminology</nciodm:PreferredTerm>
            </CodeList>
            
