<CodeList xmlns="http://www.cdisc.org/ns/odm/v1.3" xmlns:nciodm="http://ncicb.nci.nih.gov/xml/odm/EVS/CDISC" xmlns:xs="http://www.w3.org/2001/XMLSchema-instance" OID="CL.C101846.CVTEST" Name="Cardiovascular Test Name" DataType="text" nciodm:ExtCodeID="C101846" nciodm:CodeListExtensible="Yes">
                <Description>
                    <TranslatedText xml:lang="en">A terminology codelist to describe the test name for a physiological examination of the cardiovascular system.</TranslatedText>
                </Description>
                <EnumeratedItem CodedValue="Aortic Augmentation Index" nciodm:ExtCodeID="C122038">
                    <nciodm:CDISCSynonym>Aortic Augmentation Index</nciodm:CDISCSynonym>
                    <nciodm:CDISCDefinition>The augmentation pressure divided by the aortic pulse pressure (aortic systolic minus aortic diastolic pressure) multiplied by 100, expressed as a percentage.</nciodm:CDISCDefinition>
                    <nciodm:PreferredTerm>Aortic Augmentation Index</nciodm:PreferredTerm>
                </EnumeratedItem>
                <EnumeratedItem CodedValue="Aortic Augmentation Index at 75bpm" nciodm:ExtCodeID="C122083">
                    <nciodm:CDISCSynonym>Aortic Augmentation Index at 75bpm</nciodm:CDISCSynonym>
                    <nciodm:CDISCDefinition>The aortic augmentation index normalized to a heart rate of 75 beats per minute.</nciodm:CDISCDefinition>
                    <nciodm:PreferredTerm>Aortic Augmentation Index at 75bpm</nciodm:PreferredTerm>
                </EnumeratedItem>
                <EnumeratedItem CodedValue="Aortic Augmentation Pressure" nciodm:ExtCodeID="C122084">
                    <nciodm:CDISCSynonym>Aortic Augmentation Pressure</nciodm:CDISCSynonym>
                    <nciodm:CDISCDefinition>The difference between the second pressure peak in the aortic wave, secondary to the pressure wave reflection from the sites of peripheral arterial impedance mismatch (P2) and the first pressure peak in the aortic wave form, secondary to ventricular ejection (P1).</nciodm:CDISCDefinition>
                    <nciodm:PreferredTerm>Aortic Augmentation Pressure</nciodm:PreferredTerm>
                </EnumeratedItem>
                <EnumeratedItem CodedValue="Aortic Augmentation Pressure Peak P1" nciodm:ExtCodeID="C122085">
                    <nciodm:CDISCSynonym>Aortic Augmentation Pressure Peak P1</nciodm:CDISCSynonym>
                    <nciodm:CDISCDefinition>The first pressure peak in the aortic wave form secondary to ventricular ejection.</nciodm:CDISCDefinition>
                    <nciodm:PreferredTerm>Augmentation Pressure Point P1</nciodm:PreferredTerm>
                </EnumeratedItem>
                <EnumeratedItem CodedValue="Aortic Augmentation Pressure Peak P2" nciodm:ExtCodeID="C122086">
                    <nciodm:CDISCSynonym>Aortic Augmentation Pressure Peak P2</nciodm:CDISCSynonym>
                    <nciodm:CDISCDefinition>The second pressure peak in the aortic waveform secondary to pressure wave reflection from the periphery.</nciodm:CDISCDefinition>
                    <nciodm:PreferredTerm>Augmentation Pressure Point P2</nciodm:PreferredTerm>
                </EnumeratedItem>
                <EnumeratedItem CodedValue="Cardiac Index" nciodm:ExtCodeID="C119245">
                    <nciodm:CDISCSynonym>Cardiac Index</nciodm:CDISCSynonym>
                    <nciodm:CDISCDefinition>The measure of an individual's cardiac output divided by the individual's body surface area (CI= CO/BSA).</nciodm:CDISCDefinition>
                    <nciodm:PreferredTerm>Cardiac Index</nciodm:PreferredTerm>
                </EnumeratedItem>
                <EnumeratedItem CodedValue="Cardiac Output" nciodm:ExtCodeID="C119246">
                    <nciodm:CDISCSynonym>Cardiac Output</nciodm:CDISCSynonym>
                    <nciodm:CDISCDefinition>The total volume of blood pumped by the heart over a set period of time, conventionally one minute; it is calculated as heart rate times stroke volume (CO= HR x SV).</nciodm:CDISCDefinition>
                    <nciodm:PreferredTerm>Cardiac Output</nciodm:PreferredTerm>
                </EnumeratedItem>
                <EnumeratedItem CodedValue="Cardiac Valvular Regurgitation Severity" nciodm:ExtCodeID="C102244">
                    <nciodm:CDISCSynonym>Cardiac Valvular Regurgitation Severity</nciodm:CDISCSynonym>
                    <nciodm:CDISCDefinition>The qualitative measurement of the severity of cardiac valvular regurgitation.</nciodm:CDISCDefinition>
                    <nciodm:PreferredTerm>Cardiac Valvular Regurgitation Severity</nciodm:PreferredTerm>
                </EnumeratedItem>
                <EnumeratedItem CodedValue="Cardiac Valvular Stenosis Severity" nciodm:ExtCodeID="C102245">
                    <nciodm:CDISCSynonym>Cardiac Valvular Stenosis Severity</nciodm:CDISCSynonym>
                    <nciodm:CDISCDefinition>The qualitative measurement of the severity of cardiac valvular stenosis.</nciodm:CDISCDefinition>
                    <nciodm:PreferredTerm>Cardiac Valvular Stenosis Severity</nciodm:PreferredTerm>
                </EnumeratedItem>
                <EnumeratedItem CodedValue="Coronary Artery Dominance" nciodm:ExtCodeID="C100086">
                    <nciodm:CDISCSynonym>Coronary Artery Dominance</nciodm:CDISCSynonym>
                    <nciodm:CDISCDefinition>The pattern of the epicardial vessels supplying the posterolateral and posterior descending coronary arteries.</nciodm:CDISCDefinition>
                    <nciodm:PreferredTerm>Coronary Artery Dominance</nciodm:PreferredTerm>
                </EnumeratedItem>
                <EnumeratedItem CodedValue="Ejection Wave Amplitude" nciodm:ExtCodeID="C122088">
                    <nciodm:CDISCSynonym>Ejection Wave Amplitude</nciodm:CDISCSynonym>
                    <nciodm:CDISCDefinition>The magnitude of the ejection wave that occurs when blood is ejected into the aorta by the left ventricle.</nciodm:CDISCDefinition>
                    <nciodm:PreferredTerm>Ejection Wave Amplitude</nciodm:PreferredTerm>
                </EnumeratedItem>
                <EnumeratedItem CodedValue="Ischemic Myocardium Percentage" nciodm:ExtCodeID="C80494">
                    <nciodm:CDISCSynonym>Ischemic Myocardium Percentage</nciodm:CDISCSynonym>
                    <nciodm:CDISCDefinition>The percentage of myocardial tissue which exhibits characteristics of inadequate blood flow (ischemia).</nciodm:CDISCDefinition>
                    <nciodm:PreferredTerm>Ischemic Myocardium Percentage</nciodm:PreferredTerm>
                </EnumeratedItem>
                <EnumeratedItem CodedValue="Left Atrium Dimension" nciodm:ExtCodeID="C99970">
                    <nciodm:CDISCSynonym>Left Atrium Dimension</nciodm:CDISCSynonym>
                    <nciodm:CDISCDefinition>The diameter across the left atrium measured at the end of systole.</nciodm:CDISCDefinition>
                    <nciodm:PreferredTerm>Left Atrium Dimension</nciodm:PreferredTerm>
                </EnumeratedItem>
                <EnumeratedItem CodedValue="Left Ventricle Dimension, End-Diastole" nciodm:ExtCodeID="C99976">
                    <nciodm:CDISCSynonym>Left Ventricle Dimension, End-Diastole</nciodm:CDISCSynonym>
                    <nciodm:CDISCDefinition>The diameter across the ventricle at the end of diastole, excluding the thickness of the walls.</nciodm:CDISCDefinition>
                    <nciodm:PreferredTerm>Left Ventricle Dimension at End-Diastole</nciodm:PreferredTerm>
                </EnumeratedItem>
                <EnumeratedItem CodedValue="Left Ventricular Dimension, End-Systole" nciodm:ExtCodeID="C99977">
                    <nciodm:CDISCSynonym>Left Ventricular Dimension, End-Systole</nciodm:CDISCSynonym>
                    <nciodm:CDISCDefinition>The diameter across the ventricle at the end of systole, excluding the thickness of the walls.</nciodm:CDISCDefinition>
                    <nciodm:PreferredTerm>Left Ventricular Dimension at End-Systole</nciodm:PreferredTerm>
                </EnumeratedItem>
                <EnumeratedItem CodedValue="Left Ventricular Ejection Fraction" nciodm:ExtCodeID="C99524">
                    <nciodm:CDISCSynonym>Left Ventricular Ejection Fraction</nciodm:CDISCSynonym>
                    <nciodm:CDISCDefinition>The percent or fraction of the left ventricular end diastolic volume ejected in systole. The left ventricular ejection fraction is equal to the left ventricular stroke volume divided by the left ventricular end diastolic volume.</nciodm:CDISCDefinition>
                    <nciodm:PreferredTerm>Left Ventricular Ejection Fraction</nciodm:PreferredTerm>
                </EnumeratedItem>
                <EnumeratedItem CodedValue="Number of Diseased Coronary Vessels" nciodm:ExtCodeID="C99996">
                    <nciodm:CDISCSynonym>Number of Diseased Coronary Vessels</nciodm:CDISCSynonym>
                    <nciodm:CDISCDefinition>Number of major epicardial vessels with greater than or equal to 70% reduction in diameter or greater than or equal to 50% reduction in cross-sectional area.</nciodm:CDISCDefinition>
                    <nciodm:PreferredTerm>Number of Diseased Coronary Artery Vessels</nciodm:PreferredTerm>
                </EnumeratedItem>
                <EnumeratedItem CodedValue="Pulmonary Vascular Resistance" nciodm:ExtCodeID="C119247">
                    <nciodm:CDISCSynonym>Pulmonary Vascular Resistance</nciodm:CDISCSynonym>
                    <nciodm:CDISCDefinition>The resistance to blood flow through the pulmonary vasculature.</nciodm:CDISCDefinition>
                    <nciodm:PreferredTerm>Pulmonary Vascular Resistance</nciodm:PreferredTerm>
                </EnumeratedItem>
                <EnumeratedItem CodedValue="Pulse Wave Velocity" nciodm:ExtCodeID="C122087">
                    <nciodm:CDISCSynonym>Pulse Wave Velocity</nciodm:CDISCSynonym>
                    <nciodm:CDISCDefinition>The distance traveled by the peak of the ventricular ejection pressure wave per unit of time.</nciodm:CDISCDefinition>
                    <nciodm:PreferredTerm>Pulse Wave Velocity</nciodm:PreferredTerm>
                </EnumeratedItem>
                <EnumeratedItem CodedValue="Reflection Magnitude" nciodm:ExtCodeID="C122089">
                    <nciodm:CDISCSynonym>Reflection Magnitude</nciodm:CDISCSynonym>
                    <nciodm:CDISCDefinition>The reflected-to-forward pressure wave amplitude ratio. (Hashimoto J et al, J Hypertens. 2008 May;26(5):1017-24)</nciodm:CDISCDefinition>
                    <nciodm:PreferredTerm>Reflection Magnitude</nciodm:PreferredTerm>
                </EnumeratedItem>
                <EnumeratedItem CodedValue="Reflection Wave Amplitude" nciodm:ExtCodeID="C122090">
                    <nciodm:CDISCSynonym>Reflection Wave Amplitude</nciodm:CDISCSynonym>
                    <nciodm:CDISCDefinition>The summation of the numerous waves being reflected by sites of impedance mismatch where central elastic arteries join more muscular arteries.</nciodm:CDISCDefinition>
                    <nciodm:PreferredTerm>Reflection Wave Amplitude</nciodm:PreferredTerm>
                </EnumeratedItem>
                <EnumeratedItem CodedValue="Systemic Vascular Resistance" nciodm:ExtCodeID="C119248">
                    <nciodm:CDISCSynonym>Systemic Vascular Resistance</nciodm:CDISCSynonym>
                    <nciodm:CDISCDefinition>The resistance to blood flow through the systemic vasculature.</nciodm:CDISCDefinition>
                    <nciodm:PreferredTerm>Systemic Vascular Resistance</nciodm:PreferredTerm>
                </EnumeratedItem>
                <nciodm:CDISCSubmissionValue>CVTEST</nciodm:CDISCSubmissionValue>
                <nciodm:CDISCSynonym>Cardiovascular Test Name</nciodm:CDISCSynonym>
                <nciodm:PreferredTerm>CDISC SDTM Cardiovascular Test Name Terminology</nciodm:PreferredTerm>
            </CodeList>
            
