<CodeList xmlns="http://www.cdisc.org/ns/odm/v1.3" xmlns:nciodm="http://ncicb.nci.nih.gov/xml/odm/EVS/CDISC" xmlns:xs="http://www.w3.org/2001/XMLSchema-instance" OID="CL.C130251.KDPI01TC" Name="Kidney Donor Profile Index Clinical Classification Test Code" DataType="text" nciodm:ExtCodeID="C130251" nciodm:CodeListExtensible="No">
                <Description>
                    <TranslatedText xml:lang="en">Kidney Donor Profile Index test code.</TranslatedText>
                </Description>
                <EnumeratedItem CodedValue="KDPI0101" nciodm:ExtCodeID="C130393">
                    <nciodm:CDISCSynonym>KDPI01-KDPI Score</nciodm:CDISCSynonym>
                    <nciodm:CDISCDefinition>Kidney Donor Profile Index - KDPI score.</nciodm:CDISCDefinition>
                    <nciodm:PreferredTerm>KDPI - KDPI Score</nciodm:PreferredTerm>
                </EnumeratedItem>
                <nciodm:CDISCSubmissionValue>KDPI01TC</nciodm:CDISCSubmissionValue>
                <nciodm:CDISCSynonym>Kidney Donor Profile Index Clinical Classification Test Code</nciodm:CDISCSynonym>
                <nciodm:PreferredTerm>CDISC Clinical Classification KDPI Test Code Terminology</nciodm:PreferredTerm>
            </CodeList>
            
