<CodeList xmlns="http://www.cdisc.org/ns/odm/v1.3" xmlns:nciodm="http://ncicb.nci.nih.gov/xml/odm/EVS/CDISC" xmlns:xs="http://www.w3.org/2001/XMLSchema-instance" OID="CL.C132523.HAQ02TC" Name="Health Assessment Questionnaire Disability Index Without Pain Visual Analog Scale Test Code" DataType="text" nciodm:ExtCodeID="C132523" nciodm:CodeListExtensible="No">
                <Description>
                    <TranslatedText xml:lang="en">Health Assessment Questionnaire Disability Index Without Pain Visual Analog Scale test code.</TranslatedText>
                </Description>
                <EnumeratedItem CodedValue="HAQ0201" nciodm:ExtCodeID="C132573">
                    <nciodm:CDISCSynonym>HAQ02-Dress Yourself</nciodm:CDISCSynonym>
                    <nciodm:CDISCDefinition>Health Assessment Questionnaire Disability Index Without Pain Visual Analog Scale - Dressing &amp; Grooming: Are you able to dress yourself, including tying shoelaces and doing buttons?</nciodm:CDISCDefinition>
                    <nciodm:PreferredTerm>HAQ-DI Without VAS - Dress Yourself</nciodm:PreferredTerm>
                </EnumeratedItem>
                <EnumeratedItem CodedValue="HAQ0202" nciodm:ExtCodeID="C132574">
                    <nciodm:CDISCSynonym>HAQ02-Shampoo Your Hair</nciodm:CDISCSynonym>
                    <nciodm:CDISCDefinition>Health Assessment Questionnaire Disability Index Without Pain Visual Analog Scale - Dressing &amp; Grooming: Are you able to shampoo your hair?</nciodm:CDISCDefinition>
                    <nciodm:PreferredTerm>HAQ-DI Without VAS - Shampoo Your Hair</nciodm:PreferredTerm>
                </EnumeratedItem>
                <EnumeratedItem CodedValue="HAQ0203" nciodm:ExtCodeID="C132575">
                    <nciodm:CDISCSynonym>HAQ02-Stand Up From a Straight Chair</nciodm:CDISCSynonym>
                    <nciodm:CDISCDefinition>Health Assessment Questionnaire Disability Index Without Pain Visual Analog Scale - Arising: Are you able to stand up from a straight chair?</nciodm:CDISCDefinition>
                    <nciodm:PreferredTerm>HAQ-DI Without VAS - Stand Up From a Straight Chair</nciodm:PreferredTerm>
                </EnumeratedItem>
                <EnumeratedItem CodedValue="HAQ0204" nciodm:ExtCodeID="C132576">
                    <nciodm:CDISCSynonym>HAQ02-Get In and Out of Bed</nciodm:CDISCSynonym>
                    <nciodm:CDISCDefinition>Health Assessment Questionnaire Disability Index Without Pain Visual Analog Scale - Arising: Are you able to get in and out of bed?</nciodm:CDISCDefinition>
                    <nciodm:PreferredTerm>HAQ-DI Without VAS - Get In and Out of Bed</nciodm:PreferredTerm>
                </EnumeratedItem>
                <EnumeratedItem CodedValue="HAQ0205" nciodm:ExtCodeID="C132577">
                    <nciodm:CDISCSynonym>HAQ02-Cut Your Meat</nciodm:CDISCSynonym>
                    <nciodm:CDISCDefinition>Health Assessment Questionnaire Disability Index Without Pain Visual Analog Scale - Eating: Are you able to cut your meat?</nciodm:CDISCDefinition>
                    <nciodm:PreferredTerm>HAQ-DI Without VAS - Cut Your Meat</nciodm:PreferredTerm>
                </EnumeratedItem>
                <EnumeratedItem CodedValue="HAQ0206" nciodm:ExtCodeID="C132578">
                    <nciodm:CDISCSynonym>HAQ02-Lift a Full Cup or Glass to Mouth</nciodm:CDISCSynonym>
                    <nciodm:CDISCDefinition>Health Assessment Questionnaire Disability Index Without Pain Visual Analog Scale - Eating: Are you able to lift a full cup or glass to your mouth?</nciodm:CDISCDefinition>
                    <nciodm:PreferredTerm>HAQ-DI Without VAS - Lift a Full Cup or Glass to Mouth</nciodm:PreferredTerm>
                </EnumeratedItem>
                <EnumeratedItem CodedValue="HAQ0207" nciodm:ExtCodeID="C132579">
                    <nciodm:CDISCSynonym>HAQ02-Open a New Milk Carton</nciodm:CDISCSynonym>
                    <nciodm:CDISCDefinition>Health Assessment Questionnaire Disability Index Without Pain Visual Analog Scale - Eating: Are you able to open a new milk carton?</nciodm:CDISCDefinition>
                    <nciodm:PreferredTerm>HAQ-DI Without VAS - Open a New Milk Carton</nciodm:PreferredTerm>
                </EnumeratedItem>
                <EnumeratedItem CodedValue="HAQ0208" nciodm:ExtCodeID="C132580">
                    <nciodm:CDISCSynonym>HAQ02-Walk Outdoors on Flat Ground</nciodm:CDISCSynonym>
                    <nciodm:CDISCDefinition>Health Assessment Questionnaire Disability Index Without Pain Visual Analog Scale - Walking: Are you able to walk outdoors on flat ground?</nciodm:CDISCDefinition>
                    <nciodm:PreferredTerm>HAQ-DI Without VAS - Walk Outdoors on Flat Ground</nciodm:PreferredTerm>
                </EnumeratedItem>
                <EnumeratedItem CodedValue="HAQ0209" nciodm:ExtCodeID="C132581">
                    <nciodm:CDISCSynonym>HAQ02-Climb Up Five Steps</nciodm:CDISCSynonym>
                    <nciodm:CDISCDefinition>Health Assessment Questionnaire Disability Index Without Pain Visual Analog Scale - Walking: Are you able to climb up five steps?</nciodm:CDISCDefinition>
                    <nciodm:PreferredTerm>HAQ-DI Without VAS - Climb Up Five Steps</nciodm:PreferredTerm>
                </EnumeratedItem>
                <EnumeratedItem CodedValue="HAQ0210" nciodm:ExtCodeID="C132582">
                    <nciodm:CDISCSynonym>HAQ02-Aid: Cane</nciodm:CDISCSynonym>
                    <nciodm:CDISCDefinition>Health Assessment Questionnaire Disability Index Without Pain Visual Analog Scale - Aids or devices that you usually use for any of these activities: Cane.</nciodm:CDISCDefinition>
                    <nciodm:PreferredTerm>HAQ-DI Without VAS - Aid: Cane</nciodm:PreferredTerm>
                </EnumeratedItem>
                <EnumeratedItem CodedValue="HAQ0211" nciodm:ExtCodeID="C132583">
                    <nciodm:CDISCSynonym>HAQ02-Aid: Walker</nciodm:CDISCSynonym>
                    <nciodm:CDISCDefinition>Health Assessment Questionnaire Disability Index Without Pain Visual Analog Scale - Aids or devices that you usually use for any of these activities: Walker.</nciodm:CDISCDefinition>
                    <nciodm:PreferredTerm>HAQ-DI Without VAS - Aid: Walker</nciodm:PreferredTerm>
                </EnumeratedItem>
                <EnumeratedItem CodedValue="HAQ0212" nciodm:ExtCodeID="C132584">
                    <nciodm:CDISCSynonym>HAQ02-Aid: Crutches</nciodm:CDISCSynonym>
                    <nciodm:CDISCDefinition>Health Assessment Questionnaire Disability Index Without Pain Visual Analog Scale - Aids or devices that you usually use for any of these activities: Crutches.</nciodm:CDISCDefinition>
                    <nciodm:PreferredTerm>HAQ-DI Without VAS - Aid: Crutches</nciodm:PreferredTerm>
                </EnumeratedItem>
                <EnumeratedItem CodedValue="HAQ0213" nciodm:ExtCodeID="C132585">
                    <nciodm:CDISCSynonym>HAQ02-Aid: Wheelchair</nciodm:CDISCSynonym>
                    <nciodm:CDISCDefinition>Health Assessment Questionnaire Disability Index Without Pain Visual Analog Scale - Aids or devices that you usually use for any of these activities: Wheelchair.</nciodm:CDISCDefinition>
                    <nciodm:PreferredTerm>HAQ-DI Without VAS - Aid: Wheelchair</nciodm:PreferredTerm>
                </EnumeratedItem>
                <EnumeratedItem CodedValue="HAQ0214" nciodm:ExtCodeID="C132586">
                    <nciodm:CDISCSynonym>HAQ02-Aid: Devices Used for Dressing</nciodm:CDISCSynonym>
                    <nciodm:CDISCDefinition>Health Assessment Questionnaire Disability Index Without Pain Visual Analog Scale - Aids or devices that you usually use for any of these activities: Devices used for Dressing (button hook, zipper pull, long-handled shoe horn, etc.).</nciodm:CDISCDefinition>
                    <nciodm:PreferredTerm>HAQ-DI Without VAS - Aid: Devices Used for Dressing</nciodm:PreferredTerm>
                </EnumeratedItem>
                <EnumeratedItem CodedValue="HAQ0215" nciodm:ExtCodeID="C132587">
                    <nciodm:CDISCSynonym>HAQ02-Aid: Built Up or Special Utensils</nciodm:CDISCSynonym>
                    <nciodm:CDISCDefinition>Health Assessment Questionnaire Disability Index Without Pain Visual Analog Scale - Aids or devices that you usually use for any of these activities: Built up or special utensils.</nciodm:CDISCDefinition>
                    <nciodm:PreferredTerm>HAQ-DI Without VAS - Aid: Built Up or Special Utensils</nciodm:PreferredTerm>
                </EnumeratedItem>
                <EnumeratedItem CodedValue="HAQ0216" nciodm:ExtCodeID="C132588">
                    <nciodm:CDISCSynonym>HAQ02-Aid: Special or Built Up Chair</nciodm:CDISCSynonym>
                    <nciodm:CDISCDefinition>Health Assessment Questionnaire Disability Index Without Pain Visual Analog Scale - Aids or devices that you usually use for any of these activities: Special or built up chair.</nciodm:CDISCDefinition>
                    <nciodm:PreferredTerm>HAQ-DI Without VAS - Aid: Special or Built Up Chair</nciodm:PreferredTerm>
                </EnumeratedItem>
                <EnumeratedItem CodedValue="HAQ0217" nciodm:ExtCodeID="C132589">
                    <nciodm:CDISCSynonym>HAQ02-Othr Aid (Dress/Arising/Eat/Walk)</nciodm:CDISCSynonym>
                    <nciodm:CDISCDefinition>Health Assessment Questionnaire Disability Index Without Pain Visual Analog Scale - Aids or devices that you usually use for any of these activities: Other.</nciodm:CDISCDefinition>
                    <nciodm:PreferredTerm>HAQ-DI Without VAS - Other Aid (Dress or Arising or Eat or Walk)</nciodm:PreferredTerm>
                </EnumeratedItem>
                <EnumeratedItem CodedValue="HAQ0218" nciodm:ExtCodeID="C132590">
                    <nciodm:CDISCSynonym>HAQ02-Spec Aid (Dress/Arising/Eat/Walk)</nciodm:CDISCSynonym>
                    <nciodm:CDISCDefinition>Health Assessment Questionnaire Disability Index Without Pain Visual Analog Scale - Aids or devices that you usually use for any of these activities: Other (specify).</nciodm:CDISCDefinition>
                    <nciodm:PreferredTerm>HAQ-DI Without VAS - Special Aid (Dress or Arising or Eat or Walk)</nciodm:PreferredTerm>
                </EnumeratedItem>
                <EnumeratedItem CodedValue="HAQ0219" nciodm:ExtCodeID="C132591">
                    <nciodm:CDISCSynonym>HAQ02-Help: Dressing and Grooming</nciodm:CDISCSynonym>
                    <nciodm:CDISCDefinition>Health Assessment Questionnaire Disability Index Without Pain Visual Analog Scale - Usually need help from another person: Dressing and grooming.</nciodm:CDISCDefinition>
                    <nciodm:PreferredTerm>HAQ-DI Without VAS - Help: Dressing and Grooming</nciodm:PreferredTerm>
                </EnumeratedItem>
                <EnumeratedItem CodedValue="HAQ0220" nciodm:ExtCodeID="C132592">
                    <nciodm:CDISCSynonym>HAQ02-Help: Arising</nciodm:CDISCSynonym>
                    <nciodm:CDISCDefinition>Health Assessment Questionnaire Disability Index Without Pain Visual Analog Scale - Usually need help from another person: Arising.</nciodm:CDISCDefinition>
                    <nciodm:PreferredTerm>HAQ-DI Without VAS - Help: Arising</nciodm:PreferredTerm>
                </EnumeratedItem>
                <EnumeratedItem CodedValue="HAQ0221" nciodm:ExtCodeID="C132593">
                    <nciodm:CDISCSynonym>HAQ02-Help: Eating</nciodm:CDISCSynonym>
                    <nciodm:CDISCDefinition>Health Assessment Questionnaire Disability Index Without Pain Visual Analog Scale - Usually need help from another person: Eating.</nciodm:CDISCDefinition>
                    <nciodm:PreferredTerm>HAQ-DI Without VAS - Help: Eating</nciodm:PreferredTerm>
                </EnumeratedItem>
                <EnumeratedItem CodedValue="HAQ0222" nciodm:ExtCodeID="C132594">
                    <nciodm:CDISCSynonym>HAQ02-Help: Walking</nciodm:CDISCSynonym>
                    <nciodm:CDISCDefinition>Health Assessment Questionnaire Disability Index Without Pain Visual Analog Scale - Usually need help from another person: Walking.</nciodm:CDISCDefinition>
                    <nciodm:PreferredTerm>HAQ-DI Without VAS - Help: Walking</nciodm:PreferredTerm>
                </EnumeratedItem>
                <EnumeratedItem CodedValue="HAQ0223" nciodm:ExtCodeID="C132595">
                    <nciodm:CDISCSynonym>HAQ02-Wash and Dry Your Body</nciodm:CDISCSynonym>
                    <nciodm:CDISCDefinition>Health Assessment Questionnaire Disability Index Without Pain Visual Analog Scale - Hygiene: Are you able to wash and dry your body?</nciodm:CDISCDefinition>
                    <nciodm:PreferredTerm>HAQ-DI Without VAS - Wash and Dry Your Body</nciodm:PreferredTerm>
                </EnumeratedItem>
                <EnumeratedItem CodedValue="HAQ0224" nciodm:ExtCodeID="C132596">
                    <nciodm:CDISCSynonym>HAQ02-Take a Tub Bath</nciodm:CDISCSynonym>
                    <nciodm:CDISCDefinition>Health Assessment Questionnaire Disability Index Without Pain Visual Analog Scale - Hygiene: Are you able to take a tub bath?</nciodm:CDISCDefinition>
                    <nciodm:PreferredTerm>HAQ-DI Without VAS - Take a Tub Bath</nciodm:PreferredTerm>
                </EnumeratedItem>
                <EnumeratedItem CodedValue="HAQ0225" nciodm:ExtCodeID="C132597">
                    <nciodm:CDISCSynonym>HAQ02-Get On and Off The Toilet</nciodm:CDISCSynonym>
                    <nciodm:CDISCDefinition>Health Assessment Questionnaire Disability Index Without Pain Visual Analog Scale - Hygiene: Are you able to get on and off the toilet?</nciodm:CDISCDefinition>
                    <nciodm:PreferredTerm>HAQ-DI Without VAS - Get On and Off The Toilet</nciodm:PreferredTerm>
                </EnumeratedItem>
                <EnumeratedItem CodedValue="HAQ0226" nciodm:ExtCodeID="C132598">
                    <nciodm:CDISCSynonym>HAQ02-Reach-Get Down 5 Lb Obj Above Head</nciodm:CDISCSynonym>
                    <nciodm:CDISCDefinition>Health Assessment Questionnaire Disability Index Without Pain Visual Analog Scale - Reach: Are you able to reach and get down a 5-pound object (such as a bag of sugar) from just above your head?</nciodm:CDISCDefinition>
                    <nciodm:PreferredTerm>HAQ-DI Without VAS - Reach-Get Down 5 Lb Object Above Head</nciodm:PreferredTerm>
                </EnumeratedItem>
                <EnumeratedItem CodedValue="HAQ0227" nciodm:ExtCodeID="C132599">
                    <nciodm:CDISCSynonym>HAQ02-Bend Down Pick Up Clothing - Floor</nciodm:CDISCSynonym>
                    <nciodm:CDISCDefinition>Health Assessment Questionnaire Disability Index Without Pain Visual Analog Scale - Reach: Are you able to bend down to pick up clothing from the floor?</nciodm:CDISCDefinition>
                    <nciodm:PreferredTerm>HAQ-DI Without VAS - Bend Down Pick Up Clothing - Floor</nciodm:PreferredTerm>
                </EnumeratedItem>
                <EnumeratedItem CodedValue="HAQ0228" nciodm:ExtCodeID="C132600">
                    <nciodm:CDISCSynonym>HAQ02-Open Car Doors</nciodm:CDISCSynonym>
                    <nciodm:CDISCDefinition>Health Assessment Questionnaire Disability Index Without Pain Visual Analog Scale - Grip: Are you able to open car doors?</nciodm:CDISCDefinition>
                    <nciodm:PreferredTerm>HAQ-DI Without VAS - Open Car Doors</nciodm:PreferredTerm>
                </EnumeratedItem>
                <EnumeratedItem CodedValue="HAQ0229" nciodm:ExtCodeID="C132601">
                    <nciodm:CDISCSynonym>HAQ02-Open Jars Previously Opened</nciodm:CDISCSynonym>
                    <nciodm:CDISCDefinition>Health Assessment Questionnaire Disability Index Without Pain Visual Analog Scale - Grip: Are you able to open jars which have been previously opened?</nciodm:CDISCDefinition>
                    <nciodm:PreferredTerm>HAQ-DI Without VAS - Open Jars Previously Opened</nciodm:PreferredTerm>
                </EnumeratedItem>
                <EnumeratedItem CodedValue="HAQ0230" nciodm:ExtCodeID="C132602">
                    <nciodm:CDISCSynonym>HAQ02-Turn Faucets On And Off</nciodm:CDISCSynonym>
                    <nciodm:CDISCDefinition>Health Assessment Questionnaire Disability Index Without Pain Visual Analog Scale - Grip: Are you able to turn faucets on and off?</nciodm:CDISCDefinition>
                    <nciodm:PreferredTerm>HAQ-DI Without VAS - Turn Faucets On And Off</nciodm:PreferredTerm>
                </EnumeratedItem>
                <EnumeratedItem CodedValue="HAQ0231" nciodm:ExtCodeID="C132603">
                    <nciodm:CDISCSynonym>HAQ02-Run Errands and Shop</nciodm:CDISCSynonym>
                    <nciodm:CDISCDefinition>Health Assessment Questionnaire Disability Index Without Pain Visual Analog Scale - Activities: Are you able to run errands and shop?</nciodm:CDISCDefinition>
                    <nciodm:PreferredTerm>HAQ-DI Without VAS - Run Errands and Shop</nciodm:PreferredTerm>
                </EnumeratedItem>
                <EnumeratedItem CodedValue="HAQ0232" nciodm:ExtCodeID="C132604">
                    <nciodm:CDISCSynonym>HAQ02-Get In and Out of a Car</nciodm:CDISCSynonym>
                    <nciodm:CDISCDefinition>Health Assessment Questionnaire Disability Index Without Pain Visual Analog Scale - Activities: Are you able to get in and out of a car?</nciodm:CDISCDefinition>
                    <nciodm:PreferredTerm>HAQ-DI Without VAS - Get In and Out of a Car</nciodm:PreferredTerm>
                </EnumeratedItem>
                <EnumeratedItem CodedValue="HAQ0233" nciodm:ExtCodeID="C132605">
                    <nciodm:CDISCSynonym>HAQ02-Able to Do Chores</nciodm:CDISCSynonym>
                    <nciodm:CDISCDefinition>Health Assessment Questionnaire Disability Index Without Pain Visual Analog Scale - Activities: Are you able to do chores such as vacuuming or yardwork?</nciodm:CDISCDefinition>
                    <nciodm:PreferredTerm>HAQ-DI Without VAS - Able to Do Chores</nciodm:PreferredTerm>
                </EnumeratedItem>
                <EnumeratedItem CodedValue="HAQ0234" nciodm:ExtCodeID="C132606">
                    <nciodm:CDISCSynonym>HAQ02-Aid: Raised Toilet Seat</nciodm:CDISCSynonym>
                    <nciodm:CDISCDefinition>Health Assessment Questionnaire Disability Index Without Pain Visual Analog Scale - Aids or devices that you usually use for any of these activities: Raised toilet seat.</nciodm:CDISCDefinition>
                    <nciodm:PreferredTerm>HAQ-DI Without VAS - Aid: Raised Toilet Seat</nciodm:PreferredTerm>
                </EnumeratedItem>
                <EnumeratedItem CodedValue="HAQ0235" nciodm:ExtCodeID="C132607">
                    <nciodm:CDISCSynonym>HAQ02-Aid: Bathtub Seat</nciodm:CDISCSynonym>
                    <nciodm:CDISCDefinition>Health Assessment Questionnaire Disability Index Without Pain Visual Analog Scale - Aids or devices that you usually use for any of these activities: Bathtub seat.</nciodm:CDISCDefinition>
                    <nciodm:PreferredTerm>HAQ-DI Without VAS - Aid: Bathtub Seat</nciodm:PreferredTerm>
                </EnumeratedItem>
                <EnumeratedItem CodedValue="HAQ0236" nciodm:ExtCodeID="C132608">
                    <nciodm:CDISCSynonym>HAQ02-Aid: Jar Opener (Previously Open)</nciodm:CDISCSynonym>
                    <nciodm:CDISCDefinition>Health Assessment Questionnaire Disability Index Without Pain Visual Analog Scale - Aids or devices that you usually use for any of these activities: Jar opener (for jars previously opened).</nciodm:CDISCDefinition>
                    <nciodm:PreferredTerm>HAQ-DI Without VAS - Aid: Jar Opener (Previously Open)</nciodm:PreferredTerm>
                </EnumeratedItem>
                <EnumeratedItem CodedValue="HAQ0237" nciodm:ExtCodeID="C132609">
                    <nciodm:CDISCSynonym>HAQ02-Aid: Bathtub Bar</nciodm:CDISCSynonym>
                    <nciodm:CDISCDefinition>Health Assessment Questionnaire Disability Index Without Pain Visual Analog Scale - Aids or devices that you usually use for any of these activities: Bathtub bar.</nciodm:CDISCDefinition>
                    <nciodm:PreferredTerm>HAQ-DI Without VAS - Aid: Bathtub Bar</nciodm:PreferredTerm>
                </EnumeratedItem>
                <EnumeratedItem CodedValue="HAQ0238" nciodm:ExtCodeID="C132610">
                    <nciodm:CDISCSynonym>HAQ02-Aid: Long-Handled Appl Reach</nciodm:CDISCSynonym>
                    <nciodm:CDISCDefinition>Health Assessment Questionnaire Disability Index Without Pain Visual Analog Scale - Aids or devices that you usually use for any of these activities: Long-handled appliances for reach.</nciodm:CDISCDefinition>
                    <nciodm:PreferredTerm>HAQ-DI Without VAS - Aid: Long-Handled Appliances Reach</nciodm:PreferredTerm>
                </EnumeratedItem>
                <EnumeratedItem CodedValue="HAQ0239" nciodm:ExtCodeID="C132611">
                    <nciodm:CDISCSynonym>HAQ02-Aid: Long-Handled Appl Bathroom</nciodm:CDISCSynonym>
                    <nciodm:CDISCDefinition>Health Assessment Questionnaire Disability Index Without Pain Visual Analog Scale - Aids or devices that you usually use for any of these activities: Long-handled appliances in bathroom.</nciodm:CDISCDefinition>
                    <nciodm:PreferredTerm>HAQ-DI Without VAS - Aid: Long-Handled Appliances Bathroom</nciodm:PreferredTerm>
                </EnumeratedItem>
                <EnumeratedItem CodedValue="HAQ0240" nciodm:ExtCodeID="C132612">
                    <nciodm:CDISCSynonym>HAQ02-Othr Aid (Hygiene/Reach/Grip/Act)</nciodm:CDISCSynonym>
                    <nciodm:CDISCDefinition>Health Assessment Questionnaire Disability Index Without Pain Visual Analog Scale - Aids or devices that you usually use for any of these activities: Other.</nciodm:CDISCDefinition>
                    <nciodm:PreferredTerm>HAQ-DI Without VAS - Other Aid (Hygiene or Reach or Grip or Act)</nciodm:PreferredTerm>
                </EnumeratedItem>
                <EnumeratedItem CodedValue="HAQ0241" nciodm:ExtCodeID="C132613">
                    <nciodm:CDISCSynonym>HAQ02-Spec Aid (Hygiene/Reach/Grip/Act)</nciodm:CDISCSynonym>
                    <nciodm:CDISCDefinition>Health Assessment Questionnaire Disability Index Without Pain Visual Analog Scale - Aids or devices that you usually use for any of these activities: Other (specify).</nciodm:CDISCDefinition>
                    <nciodm:PreferredTerm>HAQ-DI Without VAS - Special Aid (Hygiene or Reach or Grip or Act)</nciodm:PreferredTerm>
                </EnumeratedItem>
                <EnumeratedItem CodedValue="HAQ0242" nciodm:ExtCodeID="C132614">
                    <nciodm:CDISCSynonym>HAQ02-Help: Hygiene</nciodm:CDISCSynonym>
                    <nciodm:CDISCDefinition>Health Assessment Questionnaire Disability Index Without Pain Visual Analog Scale - Usually need help from another person: Hygiene.</nciodm:CDISCDefinition>
                    <nciodm:PreferredTerm>HAQ-DI Without VAS - Help: Hygiene</nciodm:PreferredTerm>
                </EnumeratedItem>
                <EnumeratedItem CodedValue="HAQ0243" nciodm:ExtCodeID="C132615">
                    <nciodm:CDISCSynonym>HAQ02-Help: Reach</nciodm:CDISCSynonym>
                    <nciodm:CDISCDefinition>Health Assessment Questionnaire Disability Index Without Pain Visual Analog Scale - Usually need help from another person: Reach.</nciodm:CDISCDefinition>
                    <nciodm:PreferredTerm>HAQ-DI Without VAS - Help: Reach</nciodm:PreferredTerm>
                </EnumeratedItem>
                <EnumeratedItem CodedValue="HAQ0244" nciodm:ExtCodeID="C132616">
                    <nciodm:CDISCSynonym>HAQ02-Help: Gripping and Opening Things</nciodm:CDISCSynonym>
                    <nciodm:CDISCDefinition>Health Assessment Questionnaire Disability Index Without Pain Visual Analog Scale - Usually need help from another person: Gripping and opening things.</nciodm:CDISCDefinition>
                    <nciodm:PreferredTerm>HAQ-DI Without VAS - Help: Gripping and Opening Things</nciodm:PreferredTerm>
                </EnumeratedItem>
                <EnumeratedItem CodedValue="HAQ0245" nciodm:ExtCodeID="C132617">
                    <nciodm:CDISCSynonym>HAQ02-Help: Errands and Chores</nciodm:CDISCSynonym>
                    <nciodm:CDISCDefinition>Health Assessment Questionnaire Disability Index Without Pain Visual Analog Scale - Usually need help from another person: Errands and chores.</nciodm:CDISCDefinition>
                    <nciodm:PreferredTerm>HAQ-DI Without VAS - Help: Errands and Chores</nciodm:PreferredTerm>
                </EnumeratedItem>
                <nciodm:CDISCSubmissionValue>HAQ02TC</nciodm:CDISCSubmissionValue>
                <nciodm:CDISCSynonym>Health Assessment Questionnaire Disability Index Without Pain Visual Analog Scale Test Code</nciodm:CDISCSynonym>
                <nciodm:PreferredTerm>CDISC Questionnaire HAQ-DI Without VAS Test Code Terminology</nciodm:PreferredTerm>
            </CodeList>
            
