<CodeList xmlns="http://www.cdisc.org/ns/odm/v1.3" xmlns:nciodm="http://ncicb.nci.nih.gov/xml/odm/EVS/CDISC" xmlns:xs="http://www.w3.org/2001/XMLSchema-instance" OID="CL.C130240.VLERS1TN" Name="Vignos Lower Extremity Rating Scale Clinical Classification Test Name" DataType="text" nciodm:ExtCodeID="C130240" nciodm:CodeListExtensible="No">
                <Description>
                    <TranslatedText xml:lang="en">Vignos Lower Extremity Rating Scale test name.</TranslatedText>
                </Description>
                <EnumeratedItem CodedValue="VLERS1-Vignos Lower Extremity Rating" nciodm:ExtCodeID="C130327">
                    <nciodm:CDISCSynonym>VLERS1-Vignos Lower Extremity Rating</nciodm:CDISCSynonym>
                    <nciodm:CDISCDefinition>Vignos Lower Extremity Rating Scale - Vignos rating scale.</nciodm:CDISCDefinition>
                    <nciodm:PreferredTerm>VLERS - Vignos Lower Extremity Rating</nciodm:PreferredTerm>
                </EnumeratedItem>
                <nciodm:CDISCSubmissionValue>VLERS1TN</nciodm:CDISCSubmissionValue>
                <nciodm:CDISCSynonym>Vignos Lower Extremity Rating Scale Clinical Classification Test Name</nciodm:CDISCSynonym>
                <nciodm:PreferredTerm>CDISC Clinical Classification VLERS Test Name Terminology</nciodm:PreferredTerm>
            </CodeList>
            
