<CodeList xmlns="http://www.cdisc.org/ns/odm/v1.3" xmlns:nciodm="http://ncicb.nci.nih.gov/xml/odm/EVS/CDISC" xmlns:xs="http://www.w3.org/2001/XMLSchema-instance" OID="CL.C135697.PODCI3TN" Name="Pediatric Outcomes Data Collection Instrument, Adolescent Self-Reported Version Questionnaire Test Name" DataType="text" nciodm:ExtCodeID="C135697" nciodm:CodeListExtensible="No">
                <Description>
                    <TranslatedText xml:lang="en">Pediatric Outcomes Data Collection Instrument, Adolescent Self-Reported Version test name.</TranslatedText>
                </Description>
                <EnumeratedItem CodedValue="PODCI3-Ability Do Same Things Friends Do" nciodm:ExtCodeID="C136138">
                    <nciodm:CDISCSynonym>PODCI3-Ability Do Same Things Friends Do</nciodm:CDISCSynonym>
                    <nciodm:CDISCDefinition>Pediatric Outcomes Data Collection Instrument, Adolescent Self-Reported - During the last week, how happy have you been with: Your ability to do the same things your friends do?</nciodm:CDISCDefinition>
                    <nciodm:PreferredTerm>PODCI Adolescent Self-Reported Version - Ability Do Same Things Friends Do</nciodm:PreferredTerm>
                </EnumeratedItem>
                <EnumeratedItem CodedValue="PODCI3-Able to Do Activities at Home" nciodm:ExtCodeID="C136203">
                    <nciodm:CDISCSynonym>PODCI3-Able to Do Activities at Home</nciodm:CDISCSynonym>
                    <nciodm:CDISCDefinition>Pediatric Outcomes Data Collection Instrument, Adolescent Self-Reported - As a result of my treatment, I expect: To be able to do activities at home.</nciodm:CDISCDefinition>
                    <nciodm:PreferredTerm>PODCI Adolescent Self-Reported Version - Able to Do Activities at Home</nciodm:PreferredTerm>
                </EnumeratedItem>
                <EnumeratedItem CodedValue="PODCI3-Able to Do More at School" nciodm:ExtCodeID="C136204">
                    <nciodm:CDISCSynonym>PODCI3-Able to Do More at School</nciodm:CDISCSynonym>
                    <nciodm:CDISCDefinition>Pediatric Outcomes Data Collection Instrument, Adolescent Self-Reported - As a result of my treatment, I expect: To be able to do more at school.</nciodm:CDISCDefinition>
                    <nciodm:PreferredTerm>PODCI Adolescent Self-Reported Version - Able to Do More at School</nciodm:PreferredTerm>
                </EnumeratedItem>
                <EnumeratedItem CodedValue="PODCI3-Able to Do More Play" nciodm:ExtCodeID="C136205">
                    <nciodm:CDISCSynonym>PODCI3-Able to Do More Play</nciodm:CDISCSynonym>
                    <nciodm:CDISCDefinition>Pediatric Outcomes Data Collection Instrument, Adolescent Self-Reported - As a result of my treatment, I expect: To be able to do more play or recreational activities.</nciodm:CDISCDefinition>
                    <nciodm:PreferredTerm>PODCI Adolescent Self-Reported Version - Able to Do More Play</nciodm:PreferredTerm>
                </EnumeratedItem>
                <EnumeratedItem CodedValue="PODCI3-Able to Do More Sports" nciodm:ExtCodeID="C136206">
                    <nciodm:CDISCSynonym>PODCI3-Able to Do More Sports</nciodm:CDISCSynonym>
                    <nciodm:CDISCDefinition>Pediatric Outcomes Data Collection Instrument, Adolescent Self-Reported - As a result of my treatment, I expect: To be able to do more sports.</nciodm:CDISCDefinition>
                    <nciodm:PreferredTerm>PODCI Adolescent Self-Reported Version - Able to Do More Sports</nciodm:PreferredTerm>
                </EnumeratedItem>
                <EnumeratedItem CodedValue="PODCI3-Bend Over and Pick Up Something" nciodm:ExtCodeID="C136158">
                    <nciodm:CDISCSynonym>PODCI3-Bend Over and Pick Up Something</nciodm:CDISCSynonym>
                    <nciodm:CDISCDefinition>Pediatric Outcomes Data Collection Instrument, Adolescent Self-Reported - During the last week, has it been easy or hard for you to: Bend over from a standing position and pick up something off the floor?</nciodm:CDISCDefinition>
                    <nciodm:PreferredTerm>PODCI Adolescent Self-Reported Version - Bend Over and Pick Up Something</nciodm:PreferredTerm>
                </EnumeratedItem>
                <EnumeratedItem CodedValue="PODCI3-Bicycle or Tricycle" nciodm:ExtCodeID="C136144">
                    <nciodm:CDISCSynonym>PODCI3-Bicycle or Tricycle</nciodm:CDISCSynonym>
                    <nciodm:CDISCDefinition>Pediatric Outcomes Data Collection Instrument, Adolescent Self-Reported - During the last week, has it been easy or hard for you to: Bicycle or tricycle?</nciodm:CDISCDefinition>
                    <nciodm:PreferredTerm>PODCI Adolescent Self-Reported Version - Bicycle or Tricycle</nciodm:PreferredTerm>
                </EnumeratedItem>
                <EnumeratedItem CodedValue="PODCI3-Button Buttons" nciodm:ExtCodeID="C136131">
                    <nciodm:CDISCSynonym>PODCI3-Button Buttons</nciodm:CDISCSynonym>
                    <nciodm:CDISCDefinition>Pediatric Outcomes Data Collection Instrument, Adolescent Self-Reported - During the last week, was it easy or hard for you to: Button buttons?</nciodm:CDISCDefinition>
                    <nciodm:PreferredTerm>PODCI Adolescent Self-Reported Version - Button Buttons</nciodm:PreferredTerm>
                </EnumeratedItem>
                <EnumeratedItem CodedValue="PODCI3-Climb One Flight of Stairs" nciodm:ExtCodeID="C136146">
                    <nciodm:CDISCSynonym>PODCI3-Climb One Flight of Stairs</nciodm:CDISCSynonym>
                    <nciodm:CDISCDefinition>Pediatric Outcomes Data Collection Instrument, Adolescent Self-Reported - During the last week, has it been easy or hard for you to: Climb one flight of stairs?</nciodm:CDISCDefinition>
                    <nciodm:PreferredTerm>PODCI Adolescent Self-Reported Version - Climb One Flight of Stairs</nciodm:PreferredTerm>
                </EnumeratedItem>
                <EnumeratedItem CodedValue="PODCI3-Climb Three Flights of Stairs" nciodm:ExtCodeID="C136145">
                    <nciodm:CDISCSynonym>PODCI3-Climb Three Flights of Stairs</nciodm:CDISCSynonym>
                    <nciodm:CDISCDefinition>Pediatric Outcomes Data Collection Instrument, Adolescent Self-Reported - During the last week, has it been easy or hard for you to: Climb three flights of stairs?</nciodm:CDISCDefinition>
                    <nciodm:PreferredTerm>PODCI Adolescent Self-Reported Version - Climb Three Flights of Stairs</nciodm:PreferredTerm>
                </EnumeratedItem>
                <EnumeratedItem CodedValue="PODCI3-Comb Your Hair" nciodm:ExtCodeID="C136130">
                    <nciodm:CDISCSynonym>PODCI3-Comb Your Hair</nciodm:CDISCSynonym>
                    <nciodm:CDISCDefinition>Pediatric Outcomes Data Collection Instrument, Adolescent Self-Reported - During the last week, was it easy or hard for you to: Comb your hair?</nciodm:CDISCDefinition>
                    <nciodm:PreferredTerm>PODCI Adolescent Self-Reported Version - Comb Your Hair</nciodm:PreferredTerm>
                </EnumeratedItem>
                <EnumeratedItem CodedValue="PODCI3-Comp Sports Limited by: Dislike" nciodm:ExtCodeID="C136180">
                    <nciodm:CDISCSynonym>PODCI3-Comp Sports Limited by: Dislike</nciodm:CDISCSynonym>
                    <nciodm:CDISCDefinition>Pediatric Outcomes Data Collection Instrument, Adolescent Self-Reported - If you answered "no" to Question 50 above, was your activity limited by: Dislike of pickup games or sports?</nciodm:CDISCDefinition>
                    <nciodm:PreferredTerm>PODCI Adolescent Self-Reported Version - Competitive Sports Limited by: Dislike</nciodm:PreferredTerm>
                </EnumeratedItem>
                <EnumeratedItem CodedValue="PODCI3-Comp Sports Limited by: Fear" nciodm:ExtCodeID="C136179">
                    <nciodm:CDISCSynonym>PODCI3-Comp Sports Limited by: Fear</nciodm:CDISCSynonym>
                    <nciodm:CDISCDefinition>Pediatric Outcomes Data Collection Instrument, Adolescent Self-Reported - If you answered "no" to Question 50 above, was your activity limited by: Fear the other kids won't like you?</nciodm:CDISCDefinition>
                    <nciodm:PreferredTerm>PODCI Adolescent Self-Reported Version - Competitive Sports Limited by: Fear</nciodm:PreferredTerm>
                </EnumeratedItem>
                <EnumeratedItem CodedValue="PODCI3-Comp Sports Limited by: Health" nciodm:ExtCodeID="C136177">
                    <nciodm:CDISCSynonym>PODCI3-Comp Sports Limited by: Health</nciodm:CDISCSynonym>
                    <nciodm:CDISCDefinition>Pediatric Outcomes Data Collection Instrument, Adolescent Self-Reported - If you answered "no" to Question 50 above, was your activity limited by: General health?</nciodm:CDISCDefinition>
                    <nciodm:PreferredTerm>PODCI Adolescent Self-Reported Version - Competitive Sports Limited by: Health</nciodm:PreferredTerm>
                </EnumeratedItem>
                <EnumeratedItem CodedValue="PODCI3-Comp Sports Limited by: Instruct" nciodm:ExtCodeID="C136178">
                    <nciodm:CDISCSynonym>PODCI3-Comp Sports Limited by: Instruct</nciodm:CDISCSynonym>
                    <nciodm:CDISCDefinition>Pediatric Outcomes Data Collection Instrument, Adolescent Self-Reported - If you answered "no" to Question 50 above, was your activity limited by: Doctor or parent instructions?</nciodm:CDISCDefinition>
                    <nciodm:PreferredTerm>PODCI Adolescent Self-Reported Version - Competitive Sports Limited by: Instructions</nciodm:PreferredTerm>
                </EnumeratedItem>
                <EnumeratedItem CodedValue="PODCI3-Comp Sports Limited by: Pain" nciodm:ExtCodeID="C136176">
                    <nciodm:CDISCSynonym>PODCI3-Comp Sports Limited by: Pain</nciodm:CDISCSynonym>
                    <nciodm:CDISCDefinition>Pediatric Outcomes Data Collection Instrument, Adolescent Self-Reported - If you answered "no" to Question 50 above, was your activity limited by: Pain?</nciodm:CDISCDefinition>
                    <nciodm:PreferredTerm>PODCI Adolescent Self-Reported Version - Competitive Sports Limited by: Pain</nciodm:PreferredTerm>
                </EnumeratedItem>
                <EnumeratedItem CodedValue="PODCI3-Comp Sports Limited by: Season" nciodm:ExtCodeID="C136181">
                    <nciodm:CDISCSynonym>PODCI3-Comp Sports Limited by: Season</nciodm:CDISCSynonym>
                    <nciodm:CDISCDefinition>Pediatric Outcomes Data Collection Instrument, Adolescent Self-Reported - If you answered "no" to Question 50 above, was your activity limited by: Activity not in season?</nciodm:CDISCDefinition>
                    <nciodm:PreferredTerm>PODCI Adolescent Self-Reported Version - Competitive Sports Limited by: Season</nciodm:PreferredTerm>
                </EnumeratedItem>
                <EnumeratedItem CodedValue="PODCI3-Easy to Make Friends" nciodm:ExtCodeID="C136196">
                    <nciodm:CDISCSynonym>PODCI3-Easy to Make Friends</nciodm:CDISCSynonym>
                    <nciodm:CDISCDefinition>Pediatric Outcomes Data Collection Instrument, Adolescent Self-Reported - Is it easy or hard for you to make friends with kids your own age?</nciodm:CDISCDefinition>
                    <nciodm:PreferredTerm>PODCI Adolescent Self-Reported Version - Easy to Make Friends</nciodm:PreferredTerm>
                </EnumeratedItem>
                <EnumeratedItem CodedValue="PODCI3-Feel Better" nciodm:ExtCodeID="C136201">
                    <nciodm:CDISCSynonym>PODCI3-Feel Better</nciodm:CDISCSynonym>
                    <nciodm:CDISCDefinition>Pediatric Outcomes Data Collection Instrument, Adolescent Self-Reported - As a result of my treatment, I expect: To feel better about myself.</nciodm:CDISCDefinition>
                    <nciodm:PreferredTerm>PODCI Adolescent Self-Reported Version - Feel Better</nciodm:PreferredTerm>
                </EnumeratedItem>
                <EnumeratedItem CodedValue="PODCI3-Feel Sick and Tired" nciodm:ExtCodeID="C136140">
                    <nciodm:CDISCSynonym>PODCI3-Feel Sick and Tired</nciodm:CDISCSynonym>
                    <nciodm:CDISCDefinition>Pediatric Outcomes Data Collection Instrument, Adolescent Self-Reported - During the last week, how much of the time: Did you feel sick and tired?</nciodm:CDISCDefinition>
                    <nciodm:PreferredTerm>PODCI Adolescent Self-Reported Version - Feel Sick and Tired</nciodm:PreferredTerm>
                </EnumeratedItem>
                <EnumeratedItem CodedValue="PODCI3-Free From Pain as Adult" nciodm:ExtCodeID="C136207">
                    <nciodm:CDISCSynonym>PODCI3-Free From Pain as Adult</nciodm:CDISCSynonym>
                    <nciodm:CDISCDefinition>Pediatric Outcomes Data Collection Instrument, Adolescent Self-Reported - As a result of my treatment, I expect: To be free from pain or disability as an adult.</nciodm:CDISCDefinition>
                    <nciodm:PreferredTerm>PODCI Adolescent Self-Reported Version - Free From Pain as Adult</nciodm:PreferredTerm>
                </EnumeratedItem>
                <EnumeratedItem CodedValue="PODCI3-Friends Limited by: Fear" nciodm:ExtCodeID="C136186">
                    <nciodm:CDISCSynonym>PODCI3-Friends Limited by: Fear</nciodm:CDISCSynonym>
                    <nciodm:CDISCDefinition>Pediatric Outcomes Data Collection Instrument, Adolescent Self-Reported - If you answered "sometimes" or "never or rarely" to Question 57 above, was your activity limited by: Fear the other kids won't like you?</nciodm:CDISCDefinition>
                    <nciodm:PreferredTerm>PODCI Adolescent Self-Reported Version - Friends Limited by: Fear</nciodm:PreferredTerm>
                </EnumeratedItem>
                <EnumeratedItem CodedValue="PODCI3-Friends Limited by: Health" nciodm:ExtCodeID="C136184">
                    <nciodm:CDISCSynonym>PODCI3-Friends Limited by: Health</nciodm:CDISCSynonym>
                    <nciodm:CDISCDefinition>Pediatric Outcomes Data Collection Instrument, Adolescent Self-Reported - If you answered "sometimes" or "never or rarely" to Question 57 above, was your activity limited by: General health?</nciodm:CDISCDefinition>
                    <nciodm:PreferredTerm>PODCI Adolescent Self-Reported Version - Friends Limited by: Health</nciodm:PreferredTerm>
                </EnumeratedItem>
                <EnumeratedItem CodedValue="PODCI3-Friends Limited by: Instructions" nciodm:ExtCodeID="C136185">
                    <nciodm:CDISCSynonym>PODCI3-Friends Limited by: Instructions</nciodm:CDISCSynonym>
                    <nciodm:CDISCDefinition>Pediatric Outcomes Data Collection Instrument, Adolescent Self-Reported - If you answered "sometimes" or "never or rarely" to Question 57 above, was your activity limited by: Doctor or parent instructions?</nciodm:CDISCDefinition>
                    <nciodm:PreferredTerm>PODCI Adolescent Self-Reported Version - Friends Limited by: Instructions</nciodm:PreferredTerm>
                </EnumeratedItem>
                <EnumeratedItem CodedValue="PODCI3-Friends Limited by: Not Around" nciodm:ExtCodeID="C136187">
                    <nciodm:CDISCSynonym>PODCI3-Friends Limited by: Not Around</nciodm:CDISCSynonym>
                    <nciodm:CDISCDefinition>Pediatric Outcomes Data Collection Instrument, Adolescent Self-Reported - If you answered "sometimes" or "never or rarely" to Question 57 above, was your activity limited by: Friends not around?</nciodm:CDISCDefinition>
                    <nciodm:PreferredTerm>PODCI Adolescent Self-Reported Version - Friends Limited by: Not Around</nciodm:PreferredTerm>
                </EnumeratedItem>
                <EnumeratedItem CodedValue="PODCI3-Friends Limited by: Pain" nciodm:ExtCodeID="C136183">
                    <nciodm:CDISCSynonym>PODCI3-Friends Limited by: Pain</nciodm:CDISCSynonym>
                    <nciodm:CDISCDefinition>Pediatric Outcomes Data Collection Instrument, Adolescent Self-Reported - If you answered "sometimes" or "never or rarely" to Question 57 above, was your activity limited by: Pain?</nciodm:CDISCDefinition>
                    <nciodm:PreferredTerm>PODCI Adolescent Self-Reported Version - Friends Limited by: Pain</nciodm:PreferredTerm>
                </EnumeratedItem>
                <EnumeratedItem CodedValue="PODCI3-Full of Pep and Energy" nciodm:ExtCodeID="C136141">
                    <nciodm:CDISCSynonym>PODCI3-Full of Pep and Energy</nciodm:CDISCSynonym>
                    <nciodm:CDISCDefinition>Pediatric Outcomes Data Collection Instrument, Adolescent Self-Reported - During the last week, how much of the time: Were you full of pep and energy?</nciodm:CDISCDefinition>
                    <nciodm:PreferredTerm>PODCI Adolescent Self-Reported Version - Full of Pep and Energy</nciodm:PreferredTerm>
                </EnumeratedItem>
                <EnumeratedItem CodedValue="PODCI3-Games Limited by: Dislike" nciodm:ExtCodeID="C136173">
                    <nciodm:CDISCSynonym>PODCI3-Games Limited by: Dislike</nciodm:CDISCSynonym>
                    <nciodm:CDISCDefinition>Pediatric Outcomes Data Collection Instrument, Adolescent Self-Reported - If you answered "no" to Question 43 above, was your activity limited by: Dislike of pickup games or sports?</nciodm:CDISCDefinition>
                    <nciodm:PreferredTerm>PODCI Adolescent Self-Reported Version - Games Limited by: Dislike</nciodm:PreferredTerm>
                </EnumeratedItem>
                <EnumeratedItem CodedValue="PODCI3-Games Limited by: Fear" nciodm:ExtCodeID="C136172">
                    <nciodm:CDISCSynonym>PODCI3-Games Limited by: Fear</nciodm:CDISCSynonym>
                    <nciodm:CDISCDefinition>Pediatric Outcomes Data Collection Instrument, Adolescent Self-Reported - If you answered "no" to Question 43 above, was your activity limited by: Fear the other kids won't like you?</nciodm:CDISCDefinition>
                    <nciodm:PreferredTerm>PODCI Adolescent Self-Reported Version - Games Limited by: Fear</nciodm:PreferredTerm>
                </EnumeratedItem>
                <EnumeratedItem CodedValue="PODCI3-Games Limited by: Health" nciodm:ExtCodeID="C136170">
                    <nciodm:CDISCSynonym>PODCI3-Games Limited by: Health</nciodm:CDISCSynonym>
                    <nciodm:CDISCDefinition>Pediatric Outcomes Data Collection Instrument, Adolescent Self-Reported - If you answered "no" to Question 43 above, was your activity limited by: General health?</nciodm:CDISCDefinition>
                    <nciodm:PreferredTerm>PODCI Adolescent Self-Reported Version - Games Limited by: Health</nciodm:PreferredTerm>
                </EnumeratedItem>
                <EnumeratedItem CodedValue="PODCI3-Games Limited by: Instructions" nciodm:ExtCodeID="C136171">
                    <nciodm:CDISCSynonym>PODCI3-Games Limited by: Instructions</nciodm:CDISCSynonym>
                    <nciodm:CDISCDefinition>Pediatric Outcomes Data Collection Instrument, Adolescent Self-Reported - If you answered "no" to Question 43 above, was your activity limited by: Doctor or parent instructions?</nciodm:CDISCDefinition>
                    <nciodm:PreferredTerm>PODCI Adolescent Self-Reported Version - Games Limited by: Instructions</nciodm:PreferredTerm>
                </EnumeratedItem>
                <EnumeratedItem CodedValue="PODCI3-Games Limited by: Pain" nciodm:ExtCodeID="C136169">
                    <nciodm:CDISCSynonym>PODCI3-Games Limited by: Pain</nciodm:CDISCSynonym>
                    <nciodm:CDISCDefinition>Pediatric Outcomes Data Collection Instrument, Adolescent Self-Reported - If you answered "no" to Question 43 above, was your activity limited by: Pain?</nciodm:CDISCDefinition>
                    <nciodm:PreferredTerm>PODCI Adolescent Self-Reported Version - Games Limited by: Pain</nciodm:PreferredTerm>
                </EnumeratedItem>
                <EnumeratedItem CodedValue="PODCI3-Games Limited by: Season" nciodm:ExtCodeID="C136174">
                    <nciodm:CDISCSynonym>PODCI3-Games Limited by: Season</nciodm:CDISCSynonym>
                    <nciodm:CDISCDefinition>Pediatric Outcomes Data Collection Instrument, Adolescent Self-Reported - If you answered "no" to Question 43 above, was your activity limited by: Activity not in season?</nciodm:CDISCDefinition>
                    <nciodm:PreferredTerm>PODCI Adolescent Self-Reported Version - Games Limited by: Season</nciodm:PreferredTerm>
                </EnumeratedItem>
                <EnumeratedItem CodedValue="PODCI3-Get In and Out of Bed" nciodm:ExtCodeID="C136156">
                    <nciodm:CDISCSynonym>PODCI3-Get In and Out of Bed</nciodm:CDISCSynonym>
                    <nciodm:CDISCDefinition>Pediatric Outcomes Data Collection Instrument, Adolescent Self-Reported - During the last week, has it been easy or hard for you to: Get in and out of bed?</nciodm:CDISCDefinition>
                    <nciodm:PreferredTerm>PODCI Adolescent Self-Reported Version - Get In and Out of Bed</nciodm:PreferredTerm>
                </EnumeratedItem>
                <EnumeratedItem CodedValue="PODCI3-Get On and Off a Bus" nciodm:ExtCodeID="C136150">
                    <nciodm:CDISCSynonym>PODCI3-Get On and Off a Bus</nciodm:CDISCSynonym>
                    <nciodm:CDISCDefinition>Pediatric Outcomes Data Collection Instrument, Adolescent Self-Reported - During the last week, has it been easy or hard for you to: Get on and off a bus?</nciodm:CDISCDefinition>
                    <nciodm:PreferredTerm>PODCI Adolescent Self-Reported Version - Get On and Off a Bus</nciodm:PreferredTerm>
                </EnumeratedItem>
                <EnumeratedItem CodedValue="PODCI3-Get On and Off a Toilet or Chair" nciodm:ExtCodeID="C136155">
                    <nciodm:CDISCSynonym>PODCI3-Get On and Off a Toilet or Chair</nciodm:CDISCSynonym>
                    <nciodm:CDISCDefinition>Pediatric Outcomes Data Collection Instrument, Adolescent Self-Reported - During the last week, has it been easy or hard for you to: Get on and off a toilet or chair?</nciodm:CDISCDefinition>
                    <nciodm:PreferredTerm>PODCI Adolescent Self-Reported Version - Get On and Off a Toilet or Chair</nciodm:PreferredTerm>
                </EnumeratedItem>
                <EnumeratedItem CodedValue="PODCI3-Get Together With Friends" nciodm:ExtCodeID="C136182">
                    <nciodm:CDISCSynonym>PODCI3-Get Together With Friends</nciodm:CDISCSynonym>
                    <nciodm:CDISCDefinition>Pediatric Outcomes Data Collection Instrument, Adolescent Self-Reported - How often in the last week did you get together and do things with friends?</nciodm:CDISCDefinition>
                    <nciodm:PreferredTerm>PODCI Adolescent Self-Reported Version - Get Together With Friends</nciodm:PreferredTerm>
                </EnumeratedItem>
                <EnumeratedItem CodedValue="PODCI3-Global Functioning Scale" nciodm:ExtCodeID="C136214">
                    <nciodm:CDISCSynonym>PODCI3-Global Functioning Scale</nciodm:CDISCSynonym>
                    <nciodm:CDISCDefinition>Pediatric Outcomes Data Collection Instrument, Adolescent Self-Reported - Global functioning scale.</nciodm:CDISCDefinition>
                    <nciodm:PreferredTerm>PODCI Adolescent Self-Reported Version - Global Functioning Scale</nciodm:PreferredTerm>
                </EnumeratedItem>
                <EnumeratedItem CodedValue="PODCI3-Gym Limited by: Dislike" nciodm:ExtCodeID="C136193">
                    <nciodm:CDISCSynonym>PODCI3-Gym Limited by: Dislike</nciodm:CDISCSynonym>
                    <nciodm:CDISCDefinition>Pediatric Outcomes Data Collection Instrument, Adolescent Self-Reported - If you answered "sometimes" or "never or rarely" to Question 63 above, was your activity limited by: Dislike of gym/recess?</nciodm:CDISCDefinition>
                    <nciodm:PreferredTerm>PODCI Adolescent Self-Reported Version - Gym Limited by: Dislike</nciodm:PreferredTerm>
                </EnumeratedItem>
                <EnumeratedItem CodedValue="PODCI3-Gym Limited by: Fear" nciodm:ExtCodeID="C136192">
                    <nciodm:CDISCSynonym>PODCI3-Gym Limited by: Fear</nciodm:CDISCSynonym>
                    <nciodm:CDISCDefinition>Pediatric Outcomes Data Collection Instrument, Adolescent Self-Reported - If you answered "sometimes" or "never or rarely" to Question 63 above, was your activity limited by: Fear the other kids won't like you?</nciodm:CDISCDefinition>
                    <nciodm:PreferredTerm>PODCI Adolescent Self-Reported Version - Gym Limited by: Fear</nciodm:PreferredTerm>
                </EnumeratedItem>
                <EnumeratedItem CodedValue="PODCI3-Gym Limited by: Health" nciodm:ExtCodeID="C136190">
                    <nciodm:CDISCSynonym>PODCI3-Gym Limited by: Health</nciodm:CDISCSynonym>
                    <nciodm:CDISCDefinition>Pediatric Outcomes Data Collection Instrument, Adolescent Self-Reported - If you answered "sometimes" or "never or rarely" to Question 63 above, was your activity limited by: General health?</nciodm:CDISCDefinition>
                    <nciodm:PreferredTerm>PODCI Adolescent Self-Reported Version - Gym Limited by: Health</nciodm:PreferredTerm>
                </EnumeratedItem>
                <EnumeratedItem CodedValue="PODCI3-Gym Limited by: Instructions" nciodm:ExtCodeID="C136191">
                    <nciodm:CDISCSynonym>PODCI3-Gym Limited by: Instructions</nciodm:CDISCSynonym>
                    <nciodm:CDISCDefinition>Pediatric Outcomes Data Collection Instrument, Adolescent Self-Reported - If you answered "sometimes" or "never or rarely" to Question 63 above, was your activity limited by: Doctor or parent instructions?</nciodm:CDISCDefinition>
                    <nciodm:PreferredTerm>PODCI Adolescent Self-Reported Version - Gym Limited by: Instructions</nciodm:PreferredTerm>
                </EnumeratedItem>
                <EnumeratedItem CodedValue="PODCI3-Gym Limited by: Not Attend School" nciodm:ExtCodeID="C136195">
                    <nciodm:CDISCSynonym>PODCI3-Gym Limited by: Not Attend School</nciodm:CDISCSynonym>
                    <nciodm:CDISCDefinition>Pediatric Outcomes Data Collection Instrument, Adolescent Self-Reported - If you answered "sometimes" or "never or rarely" to Question 63 above, was your activity limited by: I don't attend school?</nciodm:CDISCDefinition>
                    <nciodm:PreferredTerm>PODCI Adolescent Self-Reported Version - Gym Limited by: Not Attend School</nciodm:PreferredTerm>
                </EnumeratedItem>
                <EnumeratedItem CodedValue="PODCI3-Gym Limited by: Not in Session" nciodm:ExtCodeID="C136194">
                    <nciodm:CDISCSynonym>PODCI3-Gym Limited by: Not in Session</nciodm:CDISCSynonym>
                    <nciodm:CDISCDefinition>Pediatric Outcomes Data Collection Instrument, Adolescent Self-Reported - If you answered "sometimes" or "never or rarely" to Question 63 above, was your activity limited by: School not in session?</nciodm:CDISCDefinition>
                    <nciodm:PreferredTerm>PODCI Adolescent Self-Reported Version - Gym Limited by: Not in Session</nciodm:PreferredTerm>
                </EnumeratedItem>
                <EnumeratedItem CodedValue="PODCI3-Gym Limited by: Pain" nciodm:ExtCodeID="C136189">
                    <nciodm:CDISCSynonym>PODCI3-Gym Limited by: Pain</nciodm:CDISCSynonym>
                    <nciodm:CDISCDefinition>Pediatric Outcomes Data Collection Instrument, Adolescent Self-Reported - If you answered "sometimes" or "never or rarely" to Question 63 above, was your activity limited by: Pain?</nciodm:CDISCDefinition>
                    <nciodm:PreferredTerm>PODCI Adolescent Self-Reported Version - Gym Limited by: Pain</nciodm:PreferredTerm>
                </EnumeratedItem>
                <EnumeratedItem CodedValue="PODCI3-Happiness Scale" nciodm:ExtCodeID="C136213">
                    <nciodm:CDISCSynonym>PODCI3-Happiness Scale</nciodm:CDISCSynonym>
                    <nciodm:CDISCDefinition>Pediatric Outcomes Data Collection Instrument, Adolescent Self-Reported - Happiness core scale.</nciodm:CDISCDefinition>
                    <nciodm:PreferredTerm>PODCI Adolescent Self-Reported Version - Happiness Scale</nciodm:PreferredTerm>
                </EnumeratedItem>
                <EnumeratedItem CodedValue="PODCI3-Have Pain Relief" nciodm:ExtCodeID="C136199">
                    <nciodm:CDISCSynonym>PODCI3-Have Pain Relief</nciodm:CDISCSynonym>
                    <nciodm:CDISCDefinition>Pediatric Outcomes Data Collection Instrument, Adolescent Self-Reported - As a result of my treatment, I expect: To have pain relief.</nciodm:CDISCDefinition>
                    <nciodm:PreferredTerm>PODCI Adolescent Self-Reported Version - Have Pain Relief</nciodm:PreferredTerm>
                </EnumeratedItem>
                <EnumeratedItem CodedValue="PODCI3-How You Look" nciodm:ExtCodeID="C136135">
                    <nciodm:CDISCSynonym>PODCI3-How You Look</nciodm:CDISCSynonym>
                    <nciodm:CDISCDefinition>Pediatric Outcomes Data Collection Instrument, Adolescent Self-Reported - During the last week, how happy have you been with: How you look?</nciodm:CDISCDefinition>
                    <nciodm:PreferredTerm>PODCI Adolescent Self-Reported Version - How You Look</nciodm:PreferredTerm>
                </EnumeratedItem>
                <EnumeratedItem CodedValue="PODCI3-Lift Heavy Books" nciodm:ExtCodeID="C136126">
                    <nciodm:CDISCSynonym>PODCI3-Lift Heavy Books</nciodm:CDISCSynonym>
                    <nciodm:CDISCDefinition>Pediatric Outcomes Data Collection Instrument, Adolescent Self-Reported - During the last week, was it easy or hard for you to: Lift heavy books?</nciodm:CDISCDefinition>
                    <nciodm:PreferredTerm>PODCI Adolescent Self-Reported Version - Lift Heavy Books</nciodm:PreferredTerm>
                </EnumeratedItem>
                <EnumeratedItem CodedValue="PODCI3-Look Better" nciodm:ExtCodeID="C136200">
                    <nciodm:CDISCSynonym>PODCI3-Look Better</nciodm:CDISCSynonym>
                    <nciodm:CDISCDefinition>Pediatric Outcomes Data Collection Instrument, Adolescent Self-Reported - As a result of my treatment, I expect: To look better.</nciodm:CDISCDefinition>
                    <nciodm:PreferredTerm>PODCI Adolescent Self-Reported Version - Look Better</nciodm:PreferredTerm>
                </EnumeratedItem>
                <EnumeratedItem CodedValue="PODCI3-Miss School Because of Health" nciodm:ExtCodeID="C136134">
                    <nciodm:CDISCSynonym>PODCI3-Miss School Because of Health</nciodm:CDISCSynonym>
                    <nciodm:CDISCDefinition>Pediatric Outcomes Data Collection Instrument, Adolescent Self-Reported - On average, over the last 12 months, how often did you miss school (camp, etc.) because of your health?</nciodm:CDISCDefinition>
                    <nciodm:PreferredTerm>PODCI Adolescent Self-Reported Version - Miss School Because of Health</nciodm:PreferredTerm>
                </EnumeratedItem>
                <EnumeratedItem CodedValue="PODCI3-Need Help Sitting and Standing" nciodm:ExtCodeID="C136159">
                    <nciodm:CDISCSynonym>PODCI3-Need Help Sitting and Standing</nciodm:CDISCSynonym>
                    <nciodm:CDISCDefinition>Pediatric Outcomes Data Collection Instrument, Adolescent Self-Reported - How often do you need help from another person for sitting and standing?</nciodm:CDISCDefinition>
                    <nciodm:PreferredTerm>PODCI Adolescent Self-Reported Version - Need Help Sitting and Standing</nciodm:PreferredTerm>
                </EnumeratedItem>
                <EnumeratedItem CodedValue="PODCI3-Need Help Walking and Climbing" nciodm:ExtCodeID="C136151">
                    <nciodm:CDISCSynonym>PODCI3-Need Help Walking and Climbing</nciodm:CDISCSynonym>
                    <nciodm:CDISCDefinition>Pediatric Outcomes Data Collection Instrument, Adolescent Self-Reported - How often do you need help from another person for walking and climbing?</nciodm:CDISCDefinition>
                    <nciodm:PreferredTerm>PODCI Adolescent Self-Reported Version - Need Help Walking and Climbing</nciodm:PreferredTerm>
                </EnumeratedItem>
                <EnumeratedItem CodedValue="PODCI3-Open a Jar Been Opened Before" nciodm:ExtCodeID="C136128">
                    <nciodm:CDISCSynonym>PODCI3-Open a Jar Been Opened Before</nciodm:CDISCSynonym>
                    <nciodm:CDISCDefinition>Pediatric Outcomes Data Collection Instrument, Adolescent Self-Reported - During the last week, was it easy or hard for you to: Open a jar that has been opened before?</nciodm:CDISCDefinition>
                    <nciodm:PreferredTerm>PODCI Adolescent Self-Reported Version - Open a Jar Been Opened Before</nciodm:PreferredTerm>
                </EnumeratedItem>
                <EnumeratedItem CodedValue="PODCI3-Outdoor Limited by: Dislike" nciodm:ExtCodeID="C136166">
                    <nciodm:CDISCSynonym>PODCI3-Outdoor Limited by: Dislike</nciodm:CDISCSynonym>
                    <nciodm:CDISCDefinition>Pediatric Outcomes Data Collection Instrument, Adolescent Self-Reported - If you answered "no" to Question 36 above, was your activity limited by: Dislike of recreational outdoor activities?</nciodm:CDISCDefinition>
                    <nciodm:PreferredTerm>PODCI Adolescent Self-Reported Version - Outdoor Limited by: Dislike</nciodm:PreferredTerm>
                </EnumeratedItem>
                <EnumeratedItem CodedValue="PODCI3-Outdoor Limited by: Fear" nciodm:ExtCodeID="C136165">
                    <nciodm:CDISCSynonym>PODCI3-Outdoor Limited by: Fear</nciodm:CDISCSynonym>
                    <nciodm:CDISCDefinition>Pediatric Outcomes Data Collection Instrument, Adolescent Self-Reported - If you answered "no" to Question 36 above, was your activity limited by: Fear the other kids won't like you?</nciodm:CDISCDefinition>
                    <nciodm:PreferredTerm>PODCI Adolescent Self-Reported Version - Outdoor Limited by: Fear</nciodm:PreferredTerm>
                </EnumeratedItem>
                <EnumeratedItem CodedValue="PODCI3-Outdoor Limited by: Health" nciodm:ExtCodeID="C136163">
                    <nciodm:CDISCSynonym>PODCI3-Outdoor Limited by: Health</nciodm:CDISCSynonym>
                    <nciodm:CDISCDefinition>Pediatric Outcomes Data Collection Instrument, Adolescent Self-Reported - If you answered "no" to Question 36 above, was your activity limited by: General health?</nciodm:CDISCDefinition>
                    <nciodm:PreferredTerm>PODCI Adolescent Self-Reported Version - Outdoor Limited by: Health</nciodm:PreferredTerm>
                </EnumeratedItem>
                <EnumeratedItem CodedValue="PODCI3-Outdoor Limited by: Instructions" nciodm:ExtCodeID="C136164">
                    <nciodm:CDISCSynonym>PODCI3-Outdoor Limited by: Instructions</nciodm:CDISCSynonym>
                    <nciodm:CDISCDefinition>Pediatric Outcomes Data Collection Instrument, Adolescent Self-Reported - If you answered "no" to Question 36 above, was your activity limited by: Doctor or parent instructions?</nciodm:CDISCDefinition>
                    <nciodm:PreferredTerm>PODCI Adolescent Self-Reported Version - Outdoor Limited by: Instructions</nciodm:PreferredTerm>
                </EnumeratedItem>
                <EnumeratedItem CodedValue="PODCI3-Outdoor Limited by: Pain" nciodm:ExtCodeID="C136162">
                    <nciodm:CDISCSynonym>PODCI3-Outdoor Limited by: Pain</nciodm:CDISCSynonym>
                    <nciodm:CDISCDefinition>Pediatric Outcomes Data Collection Instrument, Adolescent Self-Reported - If you answered "no" to Question 36 above, was your activity limited by: Pain?</nciodm:CDISCDefinition>
                    <nciodm:PreferredTerm>PODCI Adolescent Self-Reported Version - Outdoor Limited by: Pain</nciodm:PreferredTerm>
                </EnumeratedItem>
                <EnumeratedItem CodedValue="PODCI3-Outdoor Limited by: Season" nciodm:ExtCodeID="C136167">
                    <nciodm:CDISCSynonym>PODCI3-Outdoor Limited by: Season</nciodm:CDISCSynonym>
                    <nciodm:CDISCDefinition>Pediatric Outcomes Data Collection Instrument, Adolescent Self-Reported - If you answered "no" to Question 36 above, was your activity limited by: Activity not in season?</nciodm:CDISCDefinition>
                    <nciodm:PreferredTerm>PODCI Adolescent Self-Reported Version - Outdoor Limited by: Season</nciodm:PreferredTerm>
                </EnumeratedItem>
                <EnumeratedItem CodedValue="PODCI3-Pain During the Last Week" nciodm:ExtCodeID="C136197">
                    <nciodm:CDISCSynonym>PODCI3-Pain During the Last Week</nciodm:CDISCSynonym>
                    <nciodm:CDISCDefinition>Pediatric Outcomes Data Collection Instrument, Adolescent Self-Reported - How much pain have you had during the last week?</nciodm:CDISCDefinition>
                    <nciodm:PreferredTerm>PODCI Adolescent Self-Reported Version - Pain During the Last Week</nciodm:PreferredTerm>
                </EnumeratedItem>
                <EnumeratedItem CodedValue="PODCI3-Pain Interfere With Activities" nciodm:ExtCodeID="C136198">
                    <nciodm:CDISCSynonym>PODCI3-Pain Interfere With Activities</nciodm:CDISCSynonym>
                    <nciodm:CDISCDefinition>Pediatric Outcomes Data Collection Instrument, Adolescent Self-Reported - During the last week, how much did pain interfere with your normal activities (including at home, outside of the home, and at school)?</nciodm:CDISCDefinition>
                    <nciodm:PreferredTerm>PODCI Adolescent Self-Reported Version - Pain Interfere With Activities</nciodm:PreferredTerm>
                </EnumeratedItem>
                <EnumeratedItem CodedValue="PODCI3-Pain/Comfort Scale" nciodm:ExtCodeID="C136212">
                    <nciodm:CDISCSynonym>PODCI3-Pain/Comfort Scale</nciodm:CDISCSynonym>
                    <nciodm:CDISCDefinition>Pediatric Outcomes Data Collection Instrument, Adolescent Self-Reported - Pain/comfort core scale.</nciodm:CDISCDefinition>
                    <nciodm:PreferredTerm>PODCI Adolescent Self-Reported Version - Pain or Comfort Scale</nciodm:PreferredTerm>
                </EnumeratedItem>
                <EnumeratedItem CodedValue="PODCI3-Pain/Discom Inter With Activities" nciodm:ExtCodeID="C136142">
                    <nciodm:CDISCSynonym>PODCI3-Pain/Discom Inter With Activities</nciodm:CDISCSynonym>
                    <nciodm:CDISCDefinition>Pediatric Outcomes Data Collection Instrument, Adolescent Self-Reported - During the last week, how much of the time: Did pain or discomfort interfere with your activities?</nciodm:CDISCDefinition>
                    <nciodm:PreferredTerm>PODCI Adolescent Self-Reported Version - Pain or Discomfort Interfere With Activities</nciodm:PreferredTerm>
                </EnumeratedItem>
                <EnumeratedItem CodedValue="PODCI3-Participate in Competitive Sports" nciodm:ExtCodeID="C136175">
                    <nciodm:CDISCSynonym>PODCI3-Participate in Competitive Sports</nciodm:CDISCSynonym>
                    <nciodm:CDISCDefinition>Pediatric Outcomes Data Collection Instrument, Adolescent Self-Reported - Can you participate in competitive level sports with other kids the same age (For example: hockey, basketball, soccer, football, baseball, swimming, running [track or cross country], gymnastics, or dance)?</nciodm:CDISCDefinition>
                    <nciodm:PreferredTerm>PODCI Adolescent Self-Reported Version - Participate in Competitive Sports</nciodm:PreferredTerm>
                </EnumeratedItem>
                <EnumeratedItem CodedValue="PODCI3-Participate in Gym/Recess" nciodm:ExtCodeID="C136188">
                    <nciodm:CDISCSynonym>PODCI3-Participate in Gym/Recess</nciodm:CDISCSynonym>
                    <nciodm:CDISCDefinition>Pediatric Outcomes Data Collection Instrument, Adolescent Self-Reported - How often in the last week did you participate in gym/recess?</nciodm:CDISCDefinition>
                    <nciodm:PreferredTerm>PODCI Adolescent Self-Reported Version - Participate in Gym or Recess</nciodm:PreferredTerm>
                </EnumeratedItem>
                <EnumeratedItem CodedValue="PODCI3-Participate in Outdoor Activities" nciodm:ExtCodeID="C136161">
                    <nciodm:CDISCSynonym>PODCI3-Participate in Outdoor Activities</nciodm:CDISCSynonym>
                    <nciodm:CDISCDefinition>Pediatric Outcomes Data Collection Instrument, Adolescent Self-Reported - Can you participate in recreational outdoor activities with other kids the same age (For example: bicycling, skating, hiking, jogging)?</nciodm:CDISCDefinition>
                    <nciodm:PreferredTerm>PODCI Adolescent Self-Reported Version - Participate in Outdoor Activities</nciodm:PreferredTerm>
                </EnumeratedItem>
                <EnumeratedItem CodedValue="PODCI3-Participate in Pickup Games" nciodm:ExtCodeID="C136168">
                    <nciodm:CDISCSynonym>PODCI3-Participate in Pickup Games</nciodm:CDISCSynonym>
                    <nciodm:CDISCDefinition>Pediatric Outcomes Data Collection Instrument, Adolescent Self-Reported - Can you participate in pickup games or sports with other kids the same age (For example: tag, dodge ball, basketball, softball, soccer, catch, jump rope, touch football, hop scotch)?</nciodm:CDISCDefinition>
                    <nciodm:PreferredTerm>PODCI Adolescent Self-Reported Version - Participate in Pickup Games</nciodm:PreferredTerm>
                </EnumeratedItem>
                <EnumeratedItem CodedValue="PODCI3-Pour a Half Gallon of Milk" nciodm:ExtCodeID="C136127">
                    <nciodm:CDISCSynonym>PODCI3-Pour a Half Gallon of Milk</nciodm:CDISCSynonym>
                    <nciodm:CDISCDefinition>Pediatric Outcomes Data Collection Instrument, Adolescent Self-Reported - During the last week, was it easy or hard for you to: Pour a half gallon of milk?</nciodm:CDISCDefinition>
                    <nciodm:PreferredTerm>PODCI Adolescent Self-Reported Version - Pour a Half Gallon of Milk</nciodm:PreferredTerm>
                </EnumeratedItem>
                <EnumeratedItem CodedValue="PODCI3-Put on Your Coat" nciodm:ExtCodeID="C136132">
                    <nciodm:CDISCSynonym>PODCI3-Put on Your Coat</nciodm:CDISCSynonym>
                    <nciodm:CDISCDefinition>Pediatric Outcomes Data Collection Instrument, Adolescent Self-Reported - During the last week, was it easy or hard for you to: Put on your coat?</nciodm:CDISCDefinition>
                    <nciodm:PreferredTerm>PODCI Adolescent Self-Reported Version - Put on Your Coat</nciodm:PreferredTerm>
                </EnumeratedItem>
                <EnumeratedItem CodedValue="PODCI3-Run Short Distances" nciodm:ExtCodeID="C136143">
                    <nciodm:CDISCSynonym>PODCI3-Run Short Distances</nciodm:CDISCSynonym>
                    <nciodm:CDISCDefinition>Pediatric Outcomes Data Collection Instrument, Adolescent Self-Reported - During the last week, has it been easy or hard for you to: Run short distances?</nciodm:CDISCDefinition>
                    <nciodm:PreferredTerm>PODCI Adolescent Self-Reported Version - Run Short Distances</nciodm:PreferredTerm>
                </EnumeratedItem>
                <EnumeratedItem CodedValue="PODCI3-Sit in Chair Without Holding On" nciodm:ExtCodeID="C136154">
                    <nciodm:CDISCSynonym>PODCI3-Sit in Chair Without Holding On</nciodm:CDISCSynonym>
                    <nciodm:CDISCDefinition>Pediatric Outcomes Data Collection Instrument, Adolescent Self-Reported - During the last week, has it been easy or hard for you to: Sit in a regular chair without holding on?</nciodm:CDISCDefinition>
                    <nciodm:PreferredTerm>PODCI Adolescent Self-Reported Version - Sit in Chair Without Holding On</nciodm:PreferredTerm>
                </EnumeratedItem>
                <EnumeratedItem CodedValue="PODCI3-Sleep More Comfortably" nciodm:ExtCodeID="C136202">
                    <nciodm:CDISCSynonym>PODCI3-Sleep More Comfortably</nciodm:CDISCSynonym>
                    <nciodm:CDISCDefinition>Pediatric Outcomes Data Collection Instrument, Adolescent Self-Reported - As a result of my treatment, I expect: To sleep more comfortably.</nciodm:CDISCDefinition>
                    <nciodm:PreferredTerm>PODCI Adolescent Self-Reported Version - Sleep More Comfortably</nciodm:PreferredTerm>
                </EnumeratedItem>
                <EnumeratedItem CodedValue="PODCI3-Spend Rest of Life With Condition" nciodm:ExtCodeID="C136208">
                    <nciodm:CDISCSynonym>PODCI3-Spend Rest of Life With Condition</nciodm:CDISCSynonym>
                    <nciodm:CDISCDefinition>Pediatric Outcomes Data Collection Instrument, Adolescent Self-Reported - If you had to spend the rest of your life with your bone and muscle condition as it is right now, how would you feel about it?</nciodm:CDISCDefinition>
                    <nciodm:PreferredTerm>PODCI Adolescent Self-Reported Version - Spend Rest of Life With Condition</nciodm:PreferredTerm>
                </EnumeratedItem>
                <EnumeratedItem CodedValue="PODCI3-Sports/Phys Function Scale" nciodm:ExtCodeID="C136211">
                    <nciodm:CDISCSynonym>PODCI3-Sports/Phys Function Scale</nciodm:CDISCSynonym>
                    <nciodm:CDISCDefinition>Pediatric Outcomes Data Collection Instrument, Adolescent Self-Reported - Sports and physical functioning core scale.</nciodm:CDISCDefinition>
                    <nciodm:PreferredTerm>PODCI Adolescent Self-Reported Version - Sports and Physical Function Scale</nciodm:PreferredTerm>
                </EnumeratedItem>
                <EnumeratedItem CodedValue="PODCI3-Stand Washing Hands at a Sink" nciodm:ExtCodeID="C136153">
                    <nciodm:CDISCSynonym>PODCI3-Stand Washing Hands at a Sink</nciodm:CDISCSynonym>
                    <nciodm:CDISCDefinition>Pediatric Outcomes Data Collection Instrument, Adolescent Self-Reported - During the last week, has it been easy or hard for you to: Stand while washing your hands and face at a sink?</nciodm:CDISCDefinition>
                    <nciodm:PreferredTerm>PODCI Adolescent Self-Reported Version - Stand Washing Hands at a Sink</nciodm:PreferredTerm>
                </EnumeratedItem>
                <EnumeratedItem CodedValue="PODCI3-Transfer/Basic Mobility Scale" nciodm:ExtCodeID="C136210">
                    <nciodm:CDISCSynonym>PODCI3-Transfer/Basic Mobility Scale</nciodm:CDISCSynonym>
                    <nciodm:CDISCDefinition>Pediatric Outcomes Data Collection Instrument, Adolescent Self-Reported - Transfer and basic mobility core scale.</nciodm:CDISCDefinition>
                    <nciodm:PreferredTerm>PODCI Adolescent Self-Reported Version - Transfer and Basic Mobility Scale</nciodm:PreferredTerm>
                </EnumeratedItem>
                <EnumeratedItem CodedValue="PODCI3-Turn Door Knobs" nciodm:ExtCodeID="C136157">
                    <nciodm:CDISCSynonym>PODCI3-Turn Door Knobs</nciodm:CDISCSynonym>
                    <nciodm:CDISCDefinition>Pediatric Outcomes Data Collection Instrument, Adolescent Self-Reported - During the last week, has it been easy or hard for you to: Turn door knobs?</nciodm:CDISCDefinition>
                    <nciodm:PreferredTerm>PODCI Adolescent Self-Reported Version - Turn Door Knobs</nciodm:PreferredTerm>
                </EnumeratedItem>
                <EnumeratedItem CodedValue="PODCI3-Up Extremity/Phys Function Scale" nciodm:ExtCodeID="C136209">
                    <nciodm:CDISCSynonym>PODCI3-Up Extremity/Phys Function Scale</nciodm:CDISCSynonym>
                    <nciodm:CDISCDefinition>Pediatric Outcomes Data Collection Instrument, Adolescent Self-Reported - Upper extremity and physical function core scale.</nciodm:CDISCDefinition>
                    <nciodm:PreferredTerm>PODCI Adolescent Self-Reported Version - Upper Extremity and Physical Function Scale</nciodm:PreferredTerm>
                </EnumeratedItem>
                <EnumeratedItem CodedValue="PODCI3-Use a Fork and Spoon" nciodm:ExtCodeID="C136129">
                    <nciodm:CDISCSynonym>PODCI3-Use a Fork and Spoon</nciodm:CDISCSynonym>
                    <nciodm:CDISCDefinition>Pediatric Outcomes Data Collection Instrument, Adolescent Self-Reported - During the last week, was it easy or hard for you to: Use a fork and spoon?</nciodm:CDISCDefinition>
                    <nciodm:PreferredTerm>PODCI Adolescent Self-Reported Version - Use a Fork and Spoon</nciodm:PreferredTerm>
                </EnumeratedItem>
                <EnumeratedItem CodedValue="PODCI3-Use Assistive Devices for Sitting" nciodm:ExtCodeID="C136160">
                    <nciodm:CDISCSynonym>PODCI3-Use Assistive Devices for Sitting</nciodm:CDISCSynonym>
                    <nciodm:CDISCDefinition>Pediatric Outcomes Data Collection Instrument, Adolescent Self-Reported - How often do you use assistive devices (such as braces, crutches, or wheelchair) for sitting and standing?</nciodm:CDISCDefinition>
                    <nciodm:PreferredTerm>PODCI Adolescent Self-Reported Version - Use Assistive Devices for Sitting</nciodm:PreferredTerm>
                </EnumeratedItem>
                <EnumeratedItem CodedValue="PODCI3-Use Assistive Devices for Walking" nciodm:ExtCodeID="C136152">
                    <nciodm:CDISCSynonym>PODCI3-Use Assistive Devices for Walking</nciodm:CDISCSynonym>
                    <nciodm:CDISCDefinition>Pediatric Outcomes Data Collection Instrument, Adolescent Self-Reported - How often do you use assistive devices (such as braces, crutches, or wheelchair) for walking and climbing?</nciodm:CDISCDefinition>
                    <nciodm:PreferredTerm>PODCI Adolescent Self-Reported Version - Use Assistive Devices for Walking</nciodm:PreferredTerm>
                </EnumeratedItem>
                <EnumeratedItem CodedValue="PODCI3-Walk More Than a Mile" nciodm:ExtCodeID="C136147">
                    <nciodm:CDISCSynonym>PODCI3-Walk More Than a Mile</nciodm:CDISCSynonym>
                    <nciodm:CDISCDefinition>Pediatric Outcomes Data Collection Instrument, Adolescent Self-Reported - During the last week, has it been easy or hard for you to: Walk more than a mile?</nciodm:CDISCDefinition>
                    <nciodm:PreferredTerm>PODCI Adolescent Self-Reported Version - Walk More Than a Mile</nciodm:PreferredTerm>
                </EnumeratedItem>
                <EnumeratedItem CodedValue="PODCI3-Walk One Block" nciodm:ExtCodeID="C136149">
                    <nciodm:CDISCSynonym>PODCI3-Walk One Block</nciodm:CDISCSynonym>
                    <nciodm:CDISCDefinition>Pediatric Outcomes Data Collection Instrument, Adolescent Self-Reported - During the last week, has it been easy or hard for you to: Walk one block?</nciodm:CDISCDefinition>
                    <nciodm:PreferredTerm>PODCI Adolescent Self-Reported Version - Walk One Block</nciodm:PreferredTerm>
                </EnumeratedItem>
                <EnumeratedItem CodedValue="PODCI3-Walk Three Blocks" nciodm:ExtCodeID="C136148">
                    <nciodm:CDISCSynonym>PODCI3-Walk Three Blocks</nciodm:CDISCSynonym>
                    <nciodm:CDISCDefinition>Pediatric Outcomes Data Collection Instrument, Adolescent Self-Reported - During the last week, has it been easy or hard for you to: Walk three blocks?</nciodm:CDISCDefinition>
                    <nciodm:PreferredTerm>PODCI Adolescent Self-Reported Version - Walk Three Blocks</nciodm:PreferredTerm>
                </EnumeratedItem>
                <EnumeratedItem CodedValue="PODCI3-What Clothes/Shoes You Can Wear" nciodm:ExtCodeID="C136137">
                    <nciodm:CDISCSynonym>PODCI3-What Clothes/Shoes You Can Wear</nciodm:CDISCSynonym>
                    <nciodm:CDISCDefinition>Pediatric Outcomes Data Collection Instrument, Adolescent Self-Reported - During the last week, how happy have you been with: What clothes or shoes you can wear?</nciodm:CDISCDefinition>
                    <nciodm:PreferredTerm>PODCI Adolescent Self-Reported Version - What Clothes or Shoes You Can Wear</nciodm:PreferredTerm>
                </EnumeratedItem>
                <EnumeratedItem CodedValue="PODCI3-Write With a Pencil" nciodm:ExtCodeID="C136133">
                    <nciodm:CDISCSynonym>PODCI3-Write With a Pencil</nciodm:CDISCSynonym>
                    <nciodm:CDISCDefinition>Pediatric Outcomes Data Collection Instrument, Adolescent Self-Reported - During the last week, was it easy or hard for you to: Write with a pencil?</nciodm:CDISCDefinition>
                    <nciodm:PreferredTerm>PODCI Adolescent Self-Reported Version - Write With a Pencil</nciodm:PreferredTerm>
                </EnumeratedItem>
                <EnumeratedItem CodedValue="PODCI3-Your Body" nciodm:ExtCodeID="C136136">
                    <nciodm:CDISCSynonym>PODCI3-Your Body</nciodm:CDISCSynonym>
                    <nciodm:CDISCDefinition>Pediatric Outcomes Data Collection Instrument, Adolescent Self-Reported - During the last week, how happy have you been with: Your body?</nciodm:CDISCDefinition>
                    <nciodm:PreferredTerm>PODCI Adolescent Self-Reported Version - Your Body</nciodm:PreferredTerm>
                </EnumeratedItem>
                <EnumeratedItem CodedValue="PODCI3-Your Health in General" nciodm:ExtCodeID="C136139">
                    <nciodm:CDISCSynonym>PODCI3-Your Health in General</nciodm:CDISCSynonym>
                    <nciodm:CDISCDefinition>Pediatric Outcomes Data Collection Instrument, Adolescent Self-Reported - During the last week, how happy have you been with: Your health in general?</nciodm:CDISCDefinition>
                    <nciodm:PreferredTerm>PODCI Adolescent Self-Reported Version - Your Health in General</nciodm:PreferredTerm>
                </EnumeratedItem>
                <nciodm:CDISCSubmissionValue>PODCI3TN</nciodm:CDISCSubmissionValue>
                <nciodm:CDISCSynonym>Pediatric Outcomes Data Collection Instrument, Adolescent Self-Reported Version Questionnaire Test Name</nciodm:CDISCSynonym>
                <nciodm:PreferredTerm>CDISC Questionnaire PODCI Adolescent Self-Reported Version Test Name Terminology</nciodm:PreferredTerm>
            </CodeList>
            
