<CodeList xmlns="http://www.cdisc.org/ns/odm/v1.3" xmlns:nciodm="http://ncicb.nci.nih.gov/xml/odm/EVS/CDISC" xmlns:xs="http://www.w3.org/2001/XMLSchema-instance" OID="CL.C130276.WD2TN" Name="World Health Organization Disability Assessment Schedule 2.0 - 12-Item Proxy Questionnaire Test Name" DataType="text" nciodm:ExtCodeID="C130276" nciodm:CodeListExtensible="No">
                <Description>
                    <TranslatedText xml:lang="en">World Health Organization Disability Assessment Schedule 2.0 - 12-Item Proxy test name.</TranslatedText>
                </Description>
                <EnumeratedItem CodedValue="WD2-Care of Household Responsibilities" nciodm:ExtCodeID="C130921">
                    <nciodm:CDISCSynonym>WD2-Care of Household Responsibilities</nciodm:CDISCSynonym>
                    <nciodm:CDISCDefinition>World Health Organization Disability Assessment Schedule 2.0 - 12-Item Proxy - In the past 30 days, how much difficulty did your relative have in: Taking care of his or her household responsibilities?</nciodm:CDISCDefinition>
                    <nciodm:PreferredTerm>WHODAS 2.0 12-item Version Proxy-administered - Care of Household Responsibilities</nciodm:PreferredTerm>
                </EnumeratedItem>
                <EnumeratedItem CodedValue="WD2-Concentrating for Ten Minutes" nciodm:ExtCodeID="C130925">
                    <nciodm:CDISCSynonym>WD2-Concentrating for Ten Minutes</nciodm:CDISCSynonym>
                    <nciodm:CDISCDefinition>World Health Organization Disability Assessment Schedule 2.0 - 12-Item Proxy - In the past 30 days, how much difficulty did your relative have in: Concentrating on doing something for ten minutes?</nciodm:CDISCDefinition>
                    <nciodm:PreferredTerm>WHODAS 2.0 12-item Version Proxy-administered - Concentrating for Ten Minutes</nciodm:PreferredTerm>
                </EnumeratedItem>
                <EnumeratedItem CodedValue="WD2-Days Unable to Carry Out Activities" nciodm:ExtCodeID="C130933">
                    <nciodm:CDISCSynonym>WD2-Days Unable to Carry Out Activities</nciodm:CDISCSynonym>
                    <nciodm:CDISCDefinition>World Health Organization Disability Assessment Schedule 2.0 - 12-Item Proxy - In the past 30 days, for how many days were you totally unable to carry out your usual activities or work because of any health condition?</nciodm:CDISCDefinition>
                    <nciodm:PreferredTerm>WHODAS 2.0 12-item Version Proxy-administered - Days Unable to Carry Out Activities</nciodm:PreferredTerm>
                </EnumeratedItem>
                <EnumeratedItem CodedValue="WD2-Dealing With People Does Not Know" nciodm:ExtCodeID="C130929">
                    <nciodm:CDISCSynonym>WD2-Dealing With People Does Not Know</nciodm:CDISCSynonym>
                    <nciodm:CDISCDefinition>World Health Organization Disability Assessment Schedule 2.0 - 12-Item Proxy - In the past 30 days, how much difficulty did your relative have in: Dealing with people he or she does not know?</nciodm:CDISCDefinition>
                    <nciodm:PreferredTerm>WHODAS 2.0 12-item Version Proxy-administered - Dealing With People Does Not Know</nciodm:PreferredTerm>
                </EnumeratedItem>
                <EnumeratedItem CodedValue="WD2-Emotionally Affected by Health" nciodm:ExtCodeID="C130924">
                    <nciodm:CDISCSynonym>WD2-Emotionally Affected by Health</nciodm:CDISCSynonym>
                    <nciodm:CDISCDefinition>World Health Organization Disability Assessment Schedule 2.0 - 12-Item Proxy - In the past 30 days, how much difficulty did your relative have in: How much has your relative been emotionally affected by his or her health condition?</nciodm:CDISCDefinition>
                    <nciodm:PreferredTerm>WHODAS 2.0 12-item Version Proxy-administered - Emotionally Affected by Health</nciodm:PreferredTerm>
                </EnumeratedItem>
                <EnumeratedItem CodedValue="WD2-Getting Dressed" nciodm:ExtCodeID="C130928">
                    <nciodm:CDISCSynonym>WD2-Getting Dressed</nciodm:CDISCSynonym>
                    <nciodm:CDISCDefinition>World Health Organization Disability Assessment Schedule 2.0 - 12-Item Proxy - In the past 30 days, how much difficulty did your relative have in: Getting dressed?</nciodm:CDISCDefinition>
                    <nciodm:PreferredTerm>WHODAS 2.0 12-item Version Proxy-administered - Getting Dressed</nciodm:PreferredTerm>
                </EnumeratedItem>
                <EnumeratedItem CodedValue="WD2-How Many Days Difficulties Present" nciodm:ExtCodeID="C130932">
                    <nciodm:CDISCSynonym>WD2-How Many Days Difficulties Present</nciodm:CDISCSynonym>
                    <nciodm:CDISCDefinition>World Health Organization Disability Assessment Schedule 2.0 - 12-Item Proxy - Overall, in the past 30 days, how many days were these difficulties present?</nciodm:CDISCDefinition>
                    <nciodm:PreferredTerm>WHODAS 2.0 12-item Version Proxy-administered - How Many Days Difficulties Present</nciodm:PreferredTerm>
                </EnumeratedItem>
                <EnumeratedItem CodedValue="WD2-How Many Days Reduce Activities" nciodm:ExtCodeID="C130934">
                    <nciodm:CDISCSynonym>WD2-How Many Days Reduce Activities</nciodm:CDISCSynonym>
                    <nciodm:CDISCDefinition>World Health Organization Disability Assessment Schedule 2.0 - 12-Item Proxy - In the past 30 days, not counting the days that you were totally unable, for how many days did you cut back or reduce your usual activities or work because of any health condition?</nciodm:CDISCDefinition>
                    <nciodm:PreferredTerm>WHODAS 2.0 12-item Version Proxy-administered - How Many Days Reduce Activities</nciodm:PreferredTerm>
                </EnumeratedItem>
                <EnumeratedItem CodedValue="WD2-I Am (Fill in Blank) of This Person" nciodm:ExtCodeID="C130919">
                    <nciodm:CDISCSynonym>WD2-I Am (Fill in Blank) of This Person</nciodm:CDISCSynonym>
                    <nciodm:CDISCDefinition>World Health Organization Disability Assessment Schedule 2.0 - 12-Item Proxy - I am the (Fill in the Blank) of this person.</nciodm:CDISCDefinition>
                    <nciodm:PreferredTerm>WHODAS 2.0 12-item Version Proxy-administered - I Am the (Fill in the Blank) of This Person</nciodm:PreferredTerm>
                </EnumeratedItem>
                <EnumeratedItem CodedValue="WD2-Learning a New Task" nciodm:ExtCodeID="C130922">
                    <nciodm:CDISCSynonym>WD2-Learning a New Task</nciodm:CDISCSynonym>
                    <nciodm:CDISCDefinition>World Health Organization Disability Assessment Schedule 2.0 - 12-Item Proxy - In the past 30 days, how much difficulty did your relative have in: Learning a new task, for example, learning how to get to a new place?</nciodm:CDISCDefinition>
                    <nciodm:PreferredTerm>WHODAS 2.0 12-item Version Proxy-administered - Learning a New Task</nciodm:PreferredTerm>
                </EnumeratedItem>
                <EnumeratedItem CodedValue="WD2-Maintaining a Friendship" nciodm:ExtCodeID="C130930">
                    <nciodm:CDISCSynonym>WD2-Maintaining a Friendship</nciodm:CDISCSynonym>
                    <nciodm:CDISCDefinition>World Health Organization Disability Assessment Schedule 2.0 - 12-Item Proxy - In the past 30 days, how much difficulty did your relative have in: Maintaining a friendship?</nciodm:CDISCDefinition>
                    <nciodm:PreferredTerm>WHODAS 2.0 12-item Version Proxy-administered - Maintaining a Friendship</nciodm:PreferredTerm>
                </EnumeratedItem>
                <EnumeratedItem CodedValue="WD2-Problem Joining Community Activities" nciodm:ExtCodeID="C130923">
                    <nciodm:CDISCSynonym>WD2-Problem Joining Community Activities</nciodm:CDISCSynonym>
                    <nciodm:CDISCDefinition>World Health Organization Disability Assessment Schedule 2.0 - 12-Item Proxy - In the past 30 days, how much difficulty did your relative have in: How much of a problem did your relative have joining in community activities (for example, festivities, religious or other activities) in the same way as anyone else can?</nciodm:CDISCDefinition>
                    <nciodm:PreferredTerm>WHODAS 2.0 12-item Version Proxy-administered - Problem Joining Community Activities</nciodm:PreferredTerm>
                </EnumeratedItem>
                <EnumeratedItem CodedValue="WD2-Standing for Long Periods" nciodm:ExtCodeID="C130920">
                    <nciodm:CDISCSynonym>WD2-Standing for Long Periods</nciodm:CDISCSynonym>
                    <nciodm:CDISCDefinition>World Health Organization Disability Assessment Schedule 2.0 - 12-Item Proxy - In the past 30 days, how much difficulty did your relative have in: Standing for long periods such as 30 minutes?</nciodm:CDISCDefinition>
                    <nciodm:PreferredTerm>WHODAS 2.0 12-item Version Proxy-administered - Standing for Long Periods</nciodm:PreferredTerm>
                </EnumeratedItem>
                <EnumeratedItem CodedValue="WD2-Walking a Long Distance" nciodm:ExtCodeID="C130926">
                    <nciodm:CDISCSynonym>WD2-Walking a Long Distance</nciodm:CDISCSynonym>
                    <nciodm:CDISCDefinition>World Health Organization Disability Assessment Schedule 2.0 - 12-Item Proxy - In the past 30 days, how much difficulty did your relative have in: Walking a long distance such as a kilometre [or equivalent]?</nciodm:CDISCDefinition>
                    <nciodm:PreferredTerm>WHODAS 2.0 12-item Version Proxy-administered - Walking a Long Distance</nciodm:PreferredTerm>
                </EnumeratedItem>
                <EnumeratedItem CodedValue="WD2-Washing His/Her Whole Body" nciodm:ExtCodeID="C130927">
                    <nciodm:CDISCSynonym>WD2-Washing His/Her Whole Body</nciodm:CDISCSynonym>
                    <nciodm:CDISCDefinition>World Health Organization Disability Assessment Schedule 2.0 - 12-Item Proxy - In the past 30 days, how much difficulty did your relative have in: Washing his or her whole body?</nciodm:CDISCDefinition>
                    <nciodm:PreferredTerm>WHODAS 2.0 12-item Version Proxy-administered - Washing His or Her Whole Body</nciodm:PreferredTerm>
                </EnumeratedItem>
                <EnumeratedItem CodedValue="WD2-Your Day-to-Day Work/School" nciodm:ExtCodeID="C130931">
                    <nciodm:CDISCSynonym>WD2-Your Day-to-Day Work/School</nciodm:CDISCSynonym>
                    <nciodm:CDISCDefinition>World Health Organization Disability Assessment Schedule 2.0 - 12-Item Proxy - In the past 30 days, how much difficulty did your relative have in: His or her day-to-day work?</nciodm:CDISCDefinition>
                    <nciodm:PreferredTerm>WHODAS 2.0 12-item Version Proxy-administered - Your Day-to-Day Work or School</nciodm:PreferredTerm>
                </EnumeratedItem>
                <nciodm:CDISCSubmissionValue>WD2TN</nciodm:CDISCSubmissionValue>
                <nciodm:CDISCSynonym>World Health Organization Disability Assessment Schedule 2.0 - 12-Item Proxy Questionnaire Test Name</nciodm:CDISCSynonym>
                <nciodm:PreferredTerm>CDISC Questionnaire WHODAS 2.0 12-item Version Proxy-administered Test Name Terminology</nciodm:PreferredTerm>
            </CodeList>
            
