<CodeList xmlns="http://www.cdisc.org/ns/odm/v1.3" xmlns:nciodm="http://ncicb.nci.nih.gov/xml/odm/EVS/CDISC" xmlns:xs="http://www.w3.org/2001/XMLSchema-instance" OID="CL.C115387.SIX MINUTE WALK TEST" Name="6 Minute Walk Functional Test Test Name" DataType="text" nciodm:ExtCodeID="C115387" nciodm:CodeListExtensible="No">
                <Description>
                    <TranslatedText xml:lang="en">6 Minute Walk Test test name.</TranslatedText>
                </Description>
                <EnumeratedItem CodedValue="SIXMW1-Distance at 1 Minute" nciodm:ExtCodeID="C115800">
                    <nciodm:CDISCSynonym>SIXMW1-Distance at 1 Minute</nciodm:CDISCSynonym>
                    <nciodm:CDISCDefinition>6 Minute Walk Test - Distance at 1 minute.</nciodm:CDISCDefinition>
                    <nciodm:PreferredTerm>6MWT - Distance at 1 Minute</nciodm:PreferredTerm>
                </EnumeratedItem>
                <EnumeratedItem CodedValue="SIXMW1-Distance at 2 Minutes" nciodm:ExtCodeID="C115801">
                    <nciodm:CDISCSynonym>SIXMW1-Distance at 2 Minutes</nciodm:CDISCSynonym>
                    <nciodm:CDISCDefinition>6 Minute Walk Test - Distance at 2 minutes.</nciodm:CDISCDefinition>
                    <nciodm:PreferredTerm>6MWT - Distance at 2 Minutes</nciodm:PreferredTerm>
                </EnumeratedItem>
                <EnumeratedItem CodedValue="SIXMW1-Distance at 3 Minutes" nciodm:ExtCodeID="C115802">
                    <nciodm:CDISCSynonym>SIXMW1-Distance at 3 Minutes</nciodm:CDISCSynonym>
                    <nciodm:CDISCDefinition>6 Minute Walk Test - Distance at 3 minutes.</nciodm:CDISCDefinition>
                    <nciodm:PreferredTerm>6MWT - Distance at 3 Minutes</nciodm:PreferredTerm>
                </EnumeratedItem>
                <EnumeratedItem CodedValue="SIXMW1-Distance at 4 Minutes" nciodm:ExtCodeID="C115803">
                    <nciodm:CDISCSynonym>SIXMW1-Distance at 4 Minutes</nciodm:CDISCSynonym>
                    <nciodm:CDISCDefinition>6 Minute Walk Test - Distance at 4 minutes.</nciodm:CDISCDefinition>
                    <nciodm:PreferredTerm>6MWT - Distance at 4 Minutes</nciodm:PreferredTerm>
                </EnumeratedItem>
                <EnumeratedItem CodedValue="SIXMW1-Distance at 5 Minutes" nciodm:ExtCodeID="C115804">
                    <nciodm:CDISCSynonym>SIXMW1-Distance at 5 Minutes</nciodm:CDISCSynonym>
                    <nciodm:CDISCDefinition>6 Minute Walk Test - Distance at 5 minutes.</nciodm:CDISCDefinition>
                    <nciodm:PreferredTerm>6MWT - Distance at 5 Minutes</nciodm:PreferredTerm>
                </EnumeratedItem>
                <EnumeratedItem CodedValue="SIXMW1-Distance at 6 Minutes" nciodm:ExtCodeID="C115805">
                    <nciodm:CDISCSynonym>SIXMW1-Distance at 6 Minutes</nciodm:CDISCSynonym>
                    <nciodm:CDISCDefinition>6 Minute Walk Test - Distance at 6 minutes.</nciodm:CDISCDefinition>
                    <nciodm:PreferredTerm>6MWT - Distance at 6 Minutes</nciodm:PreferredTerm>
                </EnumeratedItem>
                <nciodm:CDISCSubmissionValue>SIX MINUTE WALK TEST</nciodm:CDISCSubmissionValue>
                <nciodm:CDISCSynonym>6 Minute Walk Functional Test Test Name</nciodm:CDISCSynonym>
                <nciodm:PreferredTerm>CDISC Functional Test 6MWT Test Name Terminology</nciodm:PreferredTerm>
            </CodeList>
            
