<CodeList xmlns="http://www.cdisc.org/ns/odm/v1.3" xmlns:nciodm="http://ncicb.nci.nih.gov/xml/odm/EVS/CDISC" xmlns:xs="http://www.w3.org/2001/XMLSchema-instance" OID="CL.C138242.PQL16TN" Name="Pediatric Quality of Life Neuromuscular Module Acute Version 3 Young Child Questionnaire Test Name" DataType="text" nciodm:ExtCodeID="C138242" nciodm:CodeListExtensible="No">
                <Description>
                    <TranslatedText xml:lang="en">Pediatric Quality of Life Neuromuscular Module Acute Version 3 Young Child test name.</TranslatedText>
                </Description>
                <EnumeratedItem CodedValue="PQL16-Back Feels Stiff" nciodm:ExtCodeID="C138670">
                    <nciodm:CDISCSynonym>PQL16-Back Feels Stiff</nciodm:CDISCSynonym>
                    <nciodm:CDISCDefinition>Pediatric Quality of Life Neuromuscular Module Acute Version 3 Young Child - Think about how you have been doing for the past 7 days. Please listen carefully to each sentence and tell me how much of a problem this is for you: My back feels stiff.</nciodm:CDISCDefinition>
                    <nciodm:PreferredTerm>PedsQL Neuromuscular Module Acute Version 3.0 Young Child Report - Back Feels Stiff</nciodm:PreferredTerm>
                </EnumeratedItem>
                <EnumeratedItem CodedValue="PQL16-Feel Tired" nciodm:ExtCodeID="C138669">
                    <nciodm:CDISCSynonym>PQL16-Feel Tired</nciodm:CDISCSynonym>
                    <nciodm:CDISCDefinition>Pediatric Quality of Life Neuromuscular Module Acute Version 3 Young Child - Think about how you have been doing for the past 7 days. Please listen carefully to each sentence and tell me how much of a problem this is for you: I feel tired.</nciodm:CDISCDefinition>
                    <nciodm:PreferredTerm>PedsQL Neuromuscular Module Acute Version 3.0 Young Child Report - Feel Tired</nciodm:PreferredTerm>
                </EnumeratedItem>
                <EnumeratedItem CodedValue="PQL16-Get Hurt Accidentally" nciodm:ExtCodeID="C138678">
                    <nciodm:CDISCSynonym>PQL16-Get Hurt Accidentally</nciodm:CDISCSynonym>
                    <nciodm:CDISCDefinition>Pediatric Quality of Life Neuromuscular Module Acute Version 3 Young Child - Think about how you have been doing for the past 7 days. Please listen carefully to each sentence and tell me how much of a problem this is for you: I get hurt accidentally.</nciodm:CDISCDefinition>
                    <nciodm:PreferredTerm>PedsQL Neuromuscular Module Acute Version 3.0 Young Child Report - Get Hurt Accidentally</nciodm:PreferredTerm>
                </EnumeratedItem>
                <EnumeratedItem CodedValue="PQL16-Get Sick Easily" nciodm:ExtCodeID="C138666">
                    <nciodm:CDISCSynonym>PQL16-Get Sick Easily</nciodm:CDISCSynonym>
                    <nciodm:CDISCDefinition>Pediatric Quality of Life Neuromuscular Module Acute Version 3 Young Child - Think about how you have been doing for the past 7 days. Please listen carefully to each sentence and tell me how much of a problem this is for you: I get sick easily.</nciodm:CDISCDefinition>
                    <nciodm:PreferredTerm>PedsQL Neuromuscular Module Acute Version 3.0 Young Child Report - Get Sick Easily</nciodm:PreferredTerm>
                </EnumeratedItem>
                <EnumeratedItem CodedValue="PQL16-Get Sores and/or Rashes" nciodm:ExtCodeID="C138667">
                    <nciodm:CDISCSynonym>PQL16-Get Sores and/or Rashes</nciodm:CDISCSynonym>
                    <nciodm:CDISCDefinition>Pediatric Quality of Life Neuromuscular Module Acute Version 3 Young Child - Think about how you have been doing for the past 7 days. Please listen carefully to each sentence and tell me how much of a problem this is for you: I get sores and/or rashes.</nciodm:CDISCDefinition>
                    <nciodm:PreferredTerm>PedsQL Neuromuscular Module Acute Version 3.0 Young Child Report - Get Sores and/or Rashes</nciodm:PreferredTerm>
                </EnumeratedItem>
                <EnumeratedItem CodedValue="PQL16-Hands Are Weak" nciodm:ExtCodeID="C138672">
                    <nciodm:CDISCSynonym>PQL16-Hands Are Weak</nciodm:CDISCSynonym>
                    <nciodm:CDISCDefinition>Pediatric Quality of Life Neuromuscular Module Acute Version 3 Young Child - Think about how you have been doing for the past 7 days. Please listen carefully to each sentence and tell me how much of a problem this is for you: My hands are weak.</nciodm:CDISCDefinition>
                    <nciodm:PreferredTerm>PedsQL Neuromuscular Module Acute Version 3.0 Young Child Report - Hands Are Weak</nciodm:PreferredTerm>
                </EnumeratedItem>
                <EnumeratedItem CodedValue="PQL16-Hard to Breathe" nciodm:ExtCodeID="C138665">
                    <nciodm:CDISCSynonym>PQL16-Hard to Breathe</nciodm:CDISCSynonym>
                    <nciodm:CDISCDefinition>Pediatric Quality of Life Neuromuscular Module Acute Version 3 Young Child - Think about how you have been doing for the past 7 days. Please listen carefully to each sentence and tell me how much of a problem this is for you: It is hard to breathe.</nciodm:CDISCDefinition>
                    <nciodm:PreferredTerm>PedsQL Neuromuscular Module Acute Version 3.0 Young Child Report - Hard to Breathe</nciodm:PreferredTerm>
                </EnumeratedItem>
                <EnumeratedItem CodedValue="PQL16-Hard to Gain/Lose Weight" nciodm:ExtCodeID="C138674">
                    <nciodm:CDISCSynonym>PQL16-Hard to Gain/Lose Weight</nciodm:CDISCSynonym>
                    <nciodm:CDISCDefinition>Pediatric Quality of Life Neuromuscular Module Acute Version 3 Young Child - Think about how you have been doing for the past 7 days. Please listen carefully to each sentence and tell me how much of a problem this is for you: It is hard to gain or lose weight when I want to.</nciodm:CDISCDefinition>
                    <nciodm:PreferredTerm>PedsQL Neuromuscular Module Acute Version 3.0 Young Child Report - Hard to Gain or Lose Weight</nciodm:PreferredTerm>
                </EnumeratedItem>
                <EnumeratedItem CodedValue="PQL16-Hard to Go Places With Equipment" nciodm:ExtCodeID="C138681">
                    <nciodm:CDISCSynonym>PQL16-Hard to Go Places With Equipment</nciodm:CDISCSynonym>
                    <nciodm:CDISCDefinition>Pediatric Quality of Life Neuromuscular Module Acute Version 3 Young Child - Think about how you have been doing for the past 7 days. Please listen carefully to each sentence and tell me how much of a problem this is for you: It is hard for me to go places with my equipment.</nciodm:CDISCDefinition>
                    <nciodm:PreferredTerm>PedsQL Neuromuscular Module Acute Version 3.0 Young Child Report - Hard to Go Places With Equipment</nciodm:PreferredTerm>
                </EnumeratedItem>
                <EnumeratedItem CodedValue="PQL16-Hard to Swallow Food" nciodm:ExtCodeID="C138676">
                    <nciodm:CDISCSynonym>PQL16-Hard to Swallow Food</nciodm:CDISCSynonym>
                    <nciodm:CDISCDefinition>Pediatric Quality of Life Neuromuscular Module Acute Version 3 Young Child - Think about how you have been doing for the past 7 days. Please listen carefully to each sentence and tell me how much of a problem this is for you: It is hard to swallow food.</nciodm:CDISCDefinition>
                    <nciodm:PreferredTerm>PedsQL Neuromuscular Module Acute Version 3.0 Young Child Report - Hard to Swallow Food</nciodm:PreferredTerm>
                </EnumeratedItem>
                <EnumeratedItem CodedValue="PQL16-Hard to Turn During Night" nciodm:ExtCodeID="C138680">
                    <nciodm:CDISCSynonym>PQL16-Hard to Turn During Night</nciodm:CDISCSynonym>
                    <nciodm:CDISCDefinition>Pediatric Quality of Life Neuromuscular Module Acute Version 3 Young Child - Think about how you have been doing for the past 7 days. Please listen carefully to each sentence and tell me how much of a problem this is for you: It is hard to turn myself during the night.</nciodm:CDISCDefinition>
                    <nciodm:PreferredTerm>PedsQL Neuromuscular Module Acute Version 3.0 Young Child Report - Hard to Turn During Night</nciodm:PreferredTerm>
                </EnumeratedItem>
                <EnumeratedItem CodedValue="PQL16-Hard to Use Bathroom" nciodm:ExtCodeID="C138673">
                    <nciodm:CDISCSynonym>PQL16-Hard to Use Bathroom</nciodm:CDISCSynonym>
                    <nciodm:CDISCDefinition>Pediatric Quality of Life Neuromuscular Module Acute Version 3 Young Child - Think about how you have been doing for the past 7 days. Please listen carefully to each sentence and tell me how much of a problem this is for you: It is hard to use the bathroom.</nciodm:CDISCDefinition>
                    <nciodm:PreferredTerm>PedsQL Neuromuscular Module Acute Version 3.0 Young Child Report - Hard to Use Bathroom</nciodm:PreferredTerm>
                </EnumeratedItem>
                <EnumeratedItem CodedValue="PQL16-Hard to Use Hands" nciodm:ExtCodeID="C138675">
                    <nciodm:CDISCSynonym>PQL16-Hard to Use Hands</nciodm:CDISCSynonym>
                    <nciodm:CDISCDefinition>Pediatric Quality of Life Neuromuscular Module Acute Version 3 Young Child - Think about how you have been doing for the past 7 days. Please listen carefully to each sentence and tell me how much of a problem this is for you: It is hard to use my hands.</nciodm:CDISCDefinition>
                    <nciodm:PreferredTerm>PedsQL Neuromuscular Module Acute Version 3.0 Young Child Report - Hard to Use Hands</nciodm:PreferredTerm>
                </EnumeratedItem>
                <EnumeratedItem CodedValue="PQL16-Legs Hurt" nciodm:ExtCodeID="C138668">
                    <nciodm:CDISCSynonym>PQL16-Legs Hurt</nciodm:CDISCSynonym>
                    <nciodm:CDISCDefinition>Pediatric Quality of Life Neuromuscular Module Acute Version 3 Young Child - Think about how you have been doing for the past 7 days. Please listen carefully to each sentence and tell me how much of a problem this is for you: My legs hurt.</nciodm:CDISCDefinition>
                    <nciodm:PreferredTerm>PedsQL Neuromuscular Module Acute Version 3.0 Young Child Report - Legs Hurt</nciodm:PreferredTerm>
                </EnumeratedItem>
                <EnumeratedItem CodedValue="PQL16-Long Time to Bathe/Shower" nciodm:ExtCodeID="C138677">
                    <nciodm:CDISCSynonym>PQL16-Long Time to Bathe/Shower</nciodm:CDISCSynonym>
                    <nciodm:CDISCDefinition>Pediatric Quality of Life Neuromuscular Module Acute Version 3 Young Child - Think about how you have been doing for the past 7 days. Please listen carefully to each sentence and tell me how much of a problem this is for you: It takes me a long time to bathe or shower.</nciodm:CDISCDefinition>
                    <nciodm:PreferredTerm>PedsQL Neuromuscular Module Acute Version 3.0 Young Child Report - Long Time to Bathe or Shower</nciodm:PreferredTerm>
                </EnumeratedItem>
                <EnumeratedItem CodedValue="PQL16-Take Long Time to Eat" nciodm:ExtCodeID="C138679">
                    <nciodm:CDISCSynonym>PQL16-Take Long Time to Eat</nciodm:CDISCSynonym>
                    <nciodm:CDISCDefinition>Pediatric Quality of Life Neuromuscular Module Acute Version 3 Young Child - Think about how you have been doing for the past 7 days. Please listen carefully to each sentence and tell me how much of a problem this is for you: I take a long time to eat.</nciodm:CDISCDefinition>
                    <nciodm:PreferredTerm>PedsQL Neuromuscular Module Acute Version 3.0 Young Child Report - Take Long Time to Eat</nciodm:PreferredTerm>
                </EnumeratedItem>
                <EnumeratedItem CodedValue="PQL16-Wake Up Tired" nciodm:ExtCodeID="C138671">
                    <nciodm:CDISCSynonym>PQL16-Wake Up Tired</nciodm:CDISCSynonym>
                    <nciodm:CDISCDefinition>Pediatric Quality of Life Neuromuscular Module Acute Version 3 Young Child - Think about how you have been doing for the past 7 days. Please listen carefully to each sentence and tell me how much of a problem this is for you: I wake up tired.</nciodm:CDISCDefinition>
                    <nciodm:PreferredTerm>PedsQL Neuromuscular Module Acute Version 3.0 Young Child Report - Wake Up Tired</nciodm:PreferredTerm>
                </EnumeratedItem>
                <nciodm:CDISCSubmissionValue>PQL16TN</nciodm:CDISCSubmissionValue>
                <nciodm:CDISCSynonym>Pediatric Quality of Life Neuromuscular Module Acute Version 3 Young Child Questionnaire Test Name</nciodm:CDISCSynonym>
                <nciodm:PreferredTerm>CDISC Questionnaire PedsQL Neuromuscular Module Acute Version 3.0 Young Child Report Test Name Terminology</nciodm:PreferredTerm>
            </CodeList>
            
