<CodeList xmlns="http://www.cdisc.org/ns/odm/v1.3" xmlns:nciodm="http://ncicb.nci.nih.gov/xml/odm/EVS/CDISC" xmlns:xs="http://www.w3.org/2001/XMLSchema-instance" OID="CL.C124665.ASCVD 10-YEAR RISK TEST" Name="Atherosclerotic Cardiovascular Disease 10-Year Risk Estimator Clinical Classification Test Name" DataType="text" nciodm:ExtCodeID="C124665" nciodm:CodeListExtensible="No">
                <Description>
                    <TranslatedText xml:lang="en">Atherosclerotic Cardiovascular Disease 10-Year Risk Estimator test name.</TranslatedText>
                </Description>
                <EnumeratedItem CodedValue="ASCVD1-ASCVD 10-Year Risk Score" nciodm:ExtCodeID="C124720">
                    <nciodm:CDISCSynonym>ASCVD1-ASCVD 10-Year Risk Score</nciodm:CDISCSynonym>
                    <nciodm:CDISCDefinition>Atherosclerotic Cardiovascular Disease 10-Year Risk Estimator - Risk score.</nciodm:CDISCDefinition>
                    <nciodm:PreferredTerm>ASCVD 10-Year Risk Estimator - Risk Score</nciodm:PreferredTerm>
                </EnumeratedItem>
                <nciodm:CDISCSubmissionValue>ASCVD 10-YEAR RISK TEST</nciodm:CDISCSubmissionValue>
                <nciodm:CDISCSynonym>Atherosclerotic Cardiovascular Disease 10-Year Risk Estimator Clinical Classification Test Name</nciodm:CDISCSynonym>
                <nciodm:PreferredTerm>CDISC Clinical Classification Atherosclerotic Cardiovascular Disease 10-Year Risk Estimator Test Name Terminology</nciodm:PreferredTerm>
            </CodeList>
            
