<CodeList xmlns="http://www.cdisc.org/ns/odm/v1.3" xmlns:nciodm="http://ncicb.nci.nih.gov/xml/odm/EVS/CDISC" xmlns:xs="http://www.w3.org/2001/XMLSchema-instance" OID="CL.C101843.CADPRSN" Name="Coronary Artery Disease Presentation" DataType="text" nciodm:ExtCodeID="C101843" nciodm:CodeListExtensible="No">
                <Description>
                    <TranslatedText xml:lang="en">A terminology codelist associated with coronary artery disease presentation.</TranslatedText>
                </Description>
                <EnumeratedItem CodedValue="NON-ST ELEVATION MYOCARDIAL INFARCTION" nciodm:ExtCodeID="C80383">
                    <nciodm:CDISCSynonym>NON-STEMI</nciodm:CDISCSynonym>
                    <nciodm:CDISCSynonym>NSTEMI</nciodm:CDISCSynonym>
                    <nciodm:CDISCDefinition>A myocardial infarction that does not produce elevation in the ST segments of the ECG.</nciodm:CDISCDefinition>
                    <nciodm:PreferredTerm>Non-ST Elevation Myocardial Infarction by ECG Finding</nciodm:PreferredTerm>
                </EnumeratedItem>
                <EnumeratedItem CodedValue="ST ELEVATION MYOCARDIAL INFARCTION" nciodm:ExtCodeID="C101888">
                    <nciodm:CDISCSynonym>STEMI</nciodm:CDISCSynonym>
                    <nciodm:CDISCDefinition>A myocardial infarction that produces elevation in the ST segments of the ECG.</nciodm:CDISCDefinition>
                    <nciodm:PreferredTerm>ST Elevation Myocardial Infarction by ECG Finding</nciodm:PreferredTerm>
                </EnumeratedItem>
                <EnumeratedItem CodedValue="STABLE ANGINA" nciodm:ExtCodeID="C66914">
                    <nciodm:CDISCDefinition>Angina pectoris which has not recently changed in frequency, duration or intensity. Stable angina pectoris is relieved by rest or administration of oral, sublingual or transdermal antianginal medications.</nciodm:CDISCDefinition>
                    <nciodm:PreferredTerm>Stable Angina</nciodm:PreferredTerm>
                </EnumeratedItem>
                <EnumeratedItem CodedValue="UNSTABLE ANGINA" nciodm:ExtCodeID="C66911">
                    <nciodm:CDISCDefinition>Angina pectoris (or equivalent type of ischemic discomfort) which has recently changed in frequency, duration, intensity, or occurs at rest.</nciodm:CDISCDefinition>
                    <nciodm:PreferredTerm>Unstable Angina</nciodm:PreferredTerm>
                </EnumeratedItem>
                <EnumeratedItem CodedValue="VARIANT ANGINA" nciodm:ExtCodeID="C66915">
                    <nciodm:CDISCDefinition>A variant form of angina pectoris caused by coronary artery vasospasm, usually occurring spontaneously and frequently associated with ST segment elevation.</nciodm:CDISCDefinition>
                    <nciodm:PreferredTerm>Variant Angina</nciodm:PreferredTerm>
                </EnumeratedItem>
                <nciodm:CDISCSubmissionValue>CADPRSN</nciodm:CDISCSubmissionValue>
                <nciodm:CDISCSynonym>Coronary Artery Disease Presentation</nciodm:CDISCSynonym>
                <nciodm:PreferredTerm>CDISC SDTM Coronary Artery Disease Presentation Terminology</nciodm:PreferredTerm>
            </CodeList>
            
