<CodeList xmlns="http://www.cdisc.org/ns/odm/v1.3" xmlns:nciodm="http://ncicb.nci.nih.gov/xml/odm/EVS/CDISC" xmlns:xs="http://www.w3.org/2001/XMLSchema-instance" OID="CL.C124672.REYNOLDS CVD 10-YEAR RISK TESTCD" Name="Reynolds Cardiovascular Disease 10-Year Risk Score Clinical Classification Test Code" DataType="text" nciodm:ExtCodeID="C124672" nciodm:CodeListExtensible="No">
                <Description>
                    <TranslatedText xml:lang="en">Reynolds Cardiovascular Disease 10-Year Risk Score test code.</TranslatedText>
                </Description>
                <EnumeratedItem CodedValue="RCVD0101" nciodm:ExtCodeID="C124723">
                    <nciodm:CDISCSynonym>RCVD01-Reynolds CVD 10-Year Risk Score</nciodm:CDISCSynonym>
                    <nciodm:CDISCDefinition>Reynolds Cardiovascular Disease 10-Year Risk Score - Cardiovascular disease 10-year risk score.</nciodm:CDISCDefinition>
                    <nciodm:PreferredTerm>Reynolds CVD 10-Year Risk Score - Risk Score</nciodm:PreferredTerm>
                </EnumeratedItem>
                <nciodm:CDISCSubmissionValue>REYNOLDS CVD 10-YEAR RISK TESTCD</nciodm:CDISCSubmissionValue>
                <nciodm:CDISCSynonym>Reynolds Cardiovascular Disease 10-Year Risk Score Clinical Classification Test Code</nciodm:CDISCSynonym>
                <nciodm:PreferredTerm>CDISC Clinical Classification Reynolds CVD 10-Year Risk Score Test Code Terminology</nciodm:PreferredTerm>
            </CodeList>
            
