<CodeList xmlns="http://www.cdisc.org/ns/odm/v1.3" xmlns:nciodm="http://ncicb.nci.nih.gov/xml/odm/EVS/CDISC" xmlns:xs="http://www.w3.org/2001/XMLSchema-instance" OID="CL.C138214.LPPSS1TN" Name="Lansky Play-Performance Status Scale Clinical Classification Test Name" DataType="text" nciodm:ExtCodeID="C138214" nciodm:CodeListExtensible="No">
                <Description>
                    <TranslatedText xml:lang="en">Lansky Play-Performance Status Scale test name.</TranslatedText>
                </Description>
                <EnumeratedItem CodedValue="LPPSS1-Lansky Play-Performance Status" nciodm:ExtCodeID="C138364">
                    <nciodm:CDISCSynonym>LPPSS1-Lansky Play-Performance Status</nciodm:CDISCSynonym>
                    <nciodm:CDISCDefinition>Lansky Play-Performance Status Scale - Lansky play-performance status.</nciodm:CDISCDefinition>
                    <nciodm:PreferredTerm>LPSS - Lansky Play-Performance Status</nciodm:PreferredTerm>
                </EnumeratedItem>
                <nciodm:CDISCSubmissionValue>LPPSS1TN</nciodm:CDISCSubmissionValue>
                <nciodm:CDISCSynonym>Lansky Play-Performance Status Scale Clinical Classification Test Name</nciodm:CDISCSynonym>
                <nciodm:PreferredTerm>CDISC Clinical Classification LPSS Test Name Terminology</nciodm:PreferredTerm>
            </CodeList>
            
