<CodeList xmlns="http://www.cdisc.org/ns/odm/v1.3" xmlns:nciodm="http://ncicb.nci.nih.gov/xml/odm/EVS/CDISC" xmlns:xs="http://www.w3.org/2001/XMLSchema-instance" OID="CL.C96782.ONCRTSCD" Name="Oncology Response Assessment Test Code" DataType="text" nciodm:ExtCodeID="C96782" nciodm:CodeListExtensible="Yes">
                <Description>
                    <TranslatedText xml:lang="en">Terminology for oncology studies relevant to the test codes that describe an assessment of response to treatment or therapy within the disease response and clinical classification domain.</TranslatedText>
                </Description>
                <EnumeratedItem CodedValue="BESTRESP" nciodm:ExtCodeID="C94536">
                    <nciodm:CDISCSynonym>Best Overall Response</nciodm:CDISCSynonym>
                    <nciodm:CDISCSynonym>Best Response</nciodm:CDISCSynonym>
                    <nciodm:CDISCDefinition>An assessment of the most clinically favorable overall response of the disease to the therapy.</nciodm:CDISCDefinition>
                    <nciodm:PreferredTerm>Best Overall Response</nciodm:PreferredTerm>
                </EnumeratedItem>
                <EnumeratedItem CodedValue="BMIVLIND" nciodm:ExtCodeID="C135477">
                    <nciodm:CDISCSynonym>Bone Marrow Involvement Indicator</nciodm:CDISCSynonym>
                    <nciodm:CDISCDefinition>An indication as to whether disease is present in the bone marrow.</nciodm:CDISCDefinition>
                    <nciodm:PreferredTerm>Bone Marrow Disease Involvement Indicator</nciodm:PreferredTerm>
                </EnumeratedItem>
                <EnumeratedItem CodedValue="BONERESP" nciodm:ExtCodeID="C132455">
                    <nciodm:CDISCSynonym>Bone Response</nciodm:CDISCSynonym>
                    <nciodm:CDISCDefinition>An assessment of the bone response of the disease to the therapy.</nciodm:CDISCDefinition>
                    <nciodm:PreferredTerm>Bone Response</nciodm:PreferredTerm>
                </EnumeratedItem>
                <EnumeratedItem CodedValue="CLINRESP" nciodm:ExtCodeID="C123619">
                    <nciodm:CDISCSynonym>Clinical Response</nciodm:CDISCSynonym>
                    <nciodm:CDISCDefinition>An assessment of the clinical response of the disease to the therapy.</nciodm:CDISCDefinition>
                    <nciodm:PreferredTerm>Clinical Response</nciodm:PreferredTerm>
                </EnumeratedItem>
                <EnumeratedItem CodedValue="CPRFSTAT" nciodm:ExtCodeID="C135478">
                    <nciodm:CDISCSynonym>Clinical Performance Status</nciodm:CDISCSynonym>
                    <nciodm:CDISCDefinition>An assessment of the clinical performance, measured by a rating or scale, as a condition of disease response to therapy. (NCI)</nciodm:CDISCDefinition>
                    <nciodm:PreferredTerm>Clinical Performance Status</nciodm:PreferredTerm>
                </EnumeratedItem>
                <EnumeratedItem CodedValue="CYTORESP" nciodm:ExtCodeID="C123620">
                    <nciodm:CDISCSynonym>Cytogenetic Response</nciodm:CDISCSynonym>
                    <nciodm:CDISCDefinition>An assessment of the cytogenetic response of the disease to the therapy.</nciodm:CDISCDefinition>
                    <nciodm:PreferredTerm>Cytogenetic Response</nciodm:PreferredTerm>
                </EnumeratedItem>
                <EnumeratedItem CodedValue="DRCRIND" nciodm:ExtCodeID="C123621">
                    <nciodm:CDISCSynonym>Disease Recurrence Indicator</nciodm:CDISCSynonym>
                    <nciodm:CDISCDefinition>An indication as to whether disease recurrence occurred.</nciodm:CDISCDefinition>
                    <nciodm:PreferredTerm>Disease Recurrence Indicator</nciodm:PreferredTerm>
                </EnumeratedItem>
                <EnumeratedItem CodedValue="HEMARESP" nciodm:ExtCodeID="C123622">
                    <nciodm:CDISCSynonym>Hematologic Response</nciodm:CDISCSynonym>
                    <nciodm:CDISCDefinition>An assessment of the hematologic response of the disease to the therapy.</nciodm:CDISCDefinition>
                    <nciodm:PreferredTerm>Hematologic Response</nciodm:PreferredTerm>
                </EnumeratedItem>
                <EnumeratedItem CodedValue="LIVRRESP" nciodm:ExtCodeID="C135479">
                    <nciodm:CDISCSynonym>Liver Response</nciodm:CDISCSynonym>
                    <nciodm:CDISCDefinition>An assessment of the disease response to therapy within the liver.</nciodm:CDISCDefinition>
                    <nciodm:PreferredTerm>Disease Response in Liver</nciodm:PreferredTerm>
                </EnumeratedItem>
                <EnumeratedItem CodedValue="METBRESP" nciodm:ExtCodeID="C123623">
                    <nciodm:CDISCSynonym>Metabolic Response</nciodm:CDISCSynonym>
                    <nciodm:CDISCDefinition>An assessment of the metabolic response of the disease to the therapy.</nciodm:CDISCDefinition>
                    <nciodm:PreferredTerm>Metabolic Response</nciodm:PreferredTerm>
                </EnumeratedItem>
                <EnumeratedItem CodedValue="METSIND" nciodm:ExtCodeID="C132456">
                    <nciodm:CDISCSynonym>Metastatic Indicator</nciodm:CDISCSynonym>
                    <nciodm:CDISCDefinition>An indication as to whether disease metastasis has occurred.</nciodm:CDISCDefinition>
                    <nciodm:PreferredTerm>Metastatic Disease Indicator</nciodm:PreferredTerm>
                </EnumeratedItem>
                <EnumeratedItem CodedValue="MOLRESP" nciodm:ExtCodeID="C123624">
                    <nciodm:CDISCSynonym>Molecular Response</nciodm:CDISCSynonym>
                    <nciodm:CDISCDefinition>An assessment of the molecular response of the disease to the therapy.</nciodm:CDISCDefinition>
                    <nciodm:PreferredTerm>Molecular Response</nciodm:PreferredTerm>
                </EnumeratedItem>
                <EnumeratedItem CodedValue="MRDRESP" nciodm:ExtCodeID="C124433">
                    <nciodm:CDISCSynonym>MRD Response</nciodm:CDISCSynonym>
                    <nciodm:CDISCSynonym>Minimal Residual Disease Response</nciodm:CDISCSynonym>
                    <nciodm:CDISCDefinition>An assessment of the minimal residual disease response of the disease to the therapy.</nciodm:CDISCDefinition>
                    <nciodm:PreferredTerm>Minimal Residual Disease Response</nciodm:PreferredTerm>
                </EnumeratedItem>
                <EnumeratedItem CodedValue="MRPHRESP" nciodm:ExtCodeID="C123625">
                    <nciodm:CDISCSynonym>Morphologic Response</nciodm:CDISCSynonym>
                    <nciodm:CDISCDefinition>An assessment of the morphologic response of the disease to the therapy.</nciodm:CDISCDefinition>
                    <nciodm:PreferredTerm>Morphologic Response</nciodm:PreferredTerm>
                </EnumeratedItem>
                <EnumeratedItem CodedValue="NEWLPROG" nciodm:ExtCodeID="C103420">
                    <nciodm:CDISCSynonym>New Lesion Progression</nciodm:CDISCSynonym>
                    <nciodm:CDISCDefinition>An assessment of the equivocality of disease progression based on a newly identified lesion.</nciodm:CDISCDefinition>
                    <nciodm:PreferredTerm>New Lesion Progression</nciodm:PreferredTerm>
                </EnumeratedItem>
                <EnumeratedItem CodedValue="NTERESP" nciodm:ExtCodeID="C135480">
                    <nciodm:CDISCSynonym>Non-Target Enhancing Response</nciodm:CDISCSynonym>
                    <nciodm:CDISCDefinition>An assessment of the response to the therapy of the non-target enhancing disease. (NCI)</nciodm:CDISCDefinition>
                    <nciodm:PreferredTerm>Non-Target Enhancing Lesion Response</nciodm:PreferredTerm>
                </EnumeratedItem>
                <EnumeratedItem CodedValue="NTNERESP" nciodm:ExtCodeID="C135481">
                    <nciodm:CDISCSynonym>Non-Target Non-Enhancing Response</nciodm:CDISCSynonym>
                    <nciodm:CDISCDefinition>An assessment of the response to the therapy of the non-target non-enhancing disease. (NCI)</nciodm:CDISCDefinition>
                    <nciodm:PreferredTerm>Non-Target Non-Enhancing Lesion Response</nciodm:PreferredTerm>
                </EnumeratedItem>
                <EnumeratedItem CodedValue="NTRGRESP" nciodm:ExtCodeID="C94535">
                    <nciodm:CDISCSynonym>Non-target Response</nciodm:CDISCSynonym>
                    <nciodm:CDISCDefinition>An assessment of the response of a non-target tumor(s) to the therapy.</nciodm:CDISCDefinition>
                    <nciodm:PreferredTerm>Response in Non-Target Lesion</nciodm:PreferredTerm>
                </EnumeratedItem>
                <EnumeratedItem CodedValue="OVRLRESP" nciodm:ExtCodeID="C96613">
                    <nciodm:CDISCSynonym>Overall Response</nciodm:CDISCSynonym>
                    <nciodm:CDISCDefinition>An assessment of the overall response of the disease to the therapy. (NCI)</nciodm:CDISCDefinition>
                    <nciodm:PreferredTerm>Overall Response</nciodm:PreferredTerm>
                </EnumeratedItem>
                <EnumeratedItem CodedValue="PATHRESP" nciodm:ExtCodeID="C123626">
                    <nciodm:CDISCSynonym>Pathologic Response</nciodm:CDISCSynonym>
                    <nciodm:CDISCDefinition>An assessment of the pathologic response of the disease to the therapy.</nciodm:CDISCDefinition>
                    <nciodm:PreferredTerm>Pathologic Response</nciodm:PreferredTerm>
                </EnumeratedItem>
                <EnumeratedItem CodedValue="RDIORESP" nciodm:ExtCodeID="C123627">
                    <nciodm:CDISCSynonym>Radiologic Response</nciodm:CDISCSynonym>
                    <nciodm:CDISCDefinition>An assessment of the radiologic response of the disease to the therapy.</nciodm:CDISCDefinition>
                    <nciodm:PreferredTerm>Radiologic Response</nciodm:PreferredTerm>
                </EnumeratedItem>
                <EnumeratedItem CodedValue="SFTSRESP" nciodm:ExtCodeID="C132457">
                    <nciodm:CDISCSynonym>Soft Tissue Response</nciodm:CDISCSynonym>
                    <nciodm:CDISCDefinition>An assessment of the soft tissue response of the disease to the therapy.</nciodm:CDISCDefinition>
                    <nciodm:PreferredTerm>Soft Tissue Response</nciodm:PreferredTerm>
                </EnumeratedItem>
                <EnumeratedItem CodedValue="SPLNRESP" nciodm:ExtCodeID="C135482">
                    <nciodm:CDISCSynonym>Spleen Response</nciodm:CDISCSynonym>
                    <nciodm:CDISCDefinition>An assessment of the disease response to therapy within the spleen.</nciodm:CDISCDefinition>
                    <nciodm:PreferredTerm>Disease Response in Spleen</nciodm:PreferredTerm>
                </EnumeratedItem>
                <EnumeratedItem CodedValue="STRUSTAT" nciodm:ExtCodeID="C135483">
                    <nciodm:CDISCSynonym>Steroid Use Status</nciodm:CDISCSynonym>
                    <nciodm:CDISCDefinition>An assessment of steroid usage as a condition of disease response to therapy. (NCI)</nciodm:CDISCDefinition>
                    <nciodm:PreferredTerm>Steroid Use Status</nciodm:PreferredTerm>
                </EnumeratedItem>
                <EnumeratedItem CodedValue="SYMPTDTR" nciodm:ExtCodeID="C124434">
                    <nciodm:CDISCSynonym>Symptomatic Deterioration</nciodm:CDISCSynonym>
                    <nciodm:CDISCDefinition>A global deterioration of health status providing evidence of disease progression not covered by disease response criteria (eg. RECIST).</nciodm:CDISCDefinition>
                    <nciodm:PreferredTerm>Symptomatic Deterioration</nciodm:PreferredTerm>
                </EnumeratedItem>
                <EnumeratedItem CodedValue="TMRESP" nciodm:ExtCodeID="C132458">
                    <nciodm:CDISCSynonym>Tumor Marker Response</nciodm:CDISCSynonym>
                    <nciodm:CDISCDefinition>An assessment of disease response to therapy based on tumor marker measurement.</nciodm:CDISCDefinition>
                    <nciodm:PreferredTerm>Tumor Marker Response</nciodm:PreferredTerm>
                </EnumeratedItem>
                <EnumeratedItem CodedValue="TRGRESP" nciodm:ExtCodeID="C94534">
                    <nciodm:CDISCSynonym>Target Response</nciodm:CDISCSynonym>
                    <nciodm:CDISCDefinition>An assessment of the response of a target tumor(s) to the therapy.</nciodm:CDISCDefinition>
                    <nciodm:PreferredTerm>Response in Target Lesion</nciodm:PreferredTerm>
                </EnumeratedItem>
                <nciodm:CDISCSubmissionValue>ONCRTSCD</nciodm:CDISCSubmissionValue>
                <nciodm:CDISCSynonym>Oncology Response Assessment Test Code</nciodm:CDISCSynonym>
                <nciodm:PreferredTerm>CDISC SDTM Tumor Response Assessment Test Code Terminology</nciodm:PreferredTerm>
            </CodeList>
            
