<CodeList xmlns="http://www.cdisc.org/ns/odm/v1.3" xmlns:nciodm="http://ncicb.nci.nih.gov/xml/odm/EVS/CDISC" xmlns:xs="http://www.w3.org/2001/XMLSchema-instance" OID="CL.C124676.WHO HIV STAGING FOR CHILDREN TESTCD" Name="WHO Clinical Staging of HIV/AIDS for Children Clinical Classification Test Code" DataType="text" nciodm:ExtCodeID="C124676" nciodm:CodeListExtensible="No">
                <Description>
                    <TranslatedText xml:lang="en">WHO Clinical Staging of HIV/AIDS for Children test code.</TranslatedText>
                </Description>
                <EnumeratedItem CodedValue="WHIVS201" nciodm:ExtCodeID="C124778">
                    <nciodm:CDISCSynonym>WHIVS2-WHO Clinical Stage of HIV/AIDS</nciodm:CDISCSynonym>
                    <nciodm:CDISCDefinition>WHO Clinical Staging of HIV/AIDS for Children - WHO clinical stage of HIV/AIDS.</nciodm:CDISCDefinition>
                    <nciodm:PreferredTerm>WHO Clinical Staging of HIV/AIDS for Children - WHO Clinical Stage of HIV/AIDS</nciodm:PreferredTerm>
                </EnumeratedItem>
                <nciodm:CDISCSubmissionValue>WHO HIV STAGING FOR CHILDREN TESTCD</nciodm:CDISCSubmissionValue>
                <nciodm:CDISCSynonym>WHO Clinical Staging of HIV/AIDS for Children Clinical Classification Test Code</nciodm:CDISCSynonym>
                <nciodm:PreferredTerm>CDISC Clinical Classification WHO Clinical Staging of HIV/AIDS for Children Test Code Terminology</nciodm:PreferredTerm>
            </CodeList>
            
