<CodeList xmlns="http://www.cdisc.org/ns/odm/v1.3" xmlns:nciodm="http://ncicb.nci.nih.gov/xml/odm/EVS/CDISC" xmlns:xs="http://www.w3.org/2001/XMLSchema-instance" OID="CL.C124661.TANN02TN" Name="Tanner Scale Boy Clinical Classification Test Name" DataType="text" nciodm:ExtCodeID="C124661" nciodm:CodeListExtensible="No">
                <Description>
                    <TranslatedText xml:lang="en">Tanner Scale Boy test name.</TranslatedText>
                </Description>
                <EnumeratedItem CodedValue="TANN02-Genitalia Stages" nciodm:ExtCodeID="C124716">
                    <nciodm:CDISCSynonym>TANN02-Genitalia Stages</nciodm:CDISCSynonym>
                    <nciodm:CDISCDefinition>Tanner Scale Boy - Genitalia stages.</nciodm:CDISCDefinition>
                    <nciodm:PreferredTerm>Tanner Scale-Boy - Genitalia Stages</nciodm:PreferredTerm>
                </EnumeratedItem>
                <EnumeratedItem CodedValue="TANN02-Pubic Hair Stages" nciodm:ExtCodeID="C124717">
                    <nciodm:CDISCSynonym>TANN02-Pubic Hair Stages</nciodm:CDISCSynonym>
                    <nciodm:CDISCDefinition>Tanner Scale Boy - Pubic hair stages.</nciodm:CDISCDefinition>
                    <nciodm:PreferredTerm>Tanner Scale-Boy - Pubic Hair Stages</nciodm:PreferredTerm>
                </EnumeratedItem>
                <nciodm:CDISCSubmissionValue>TANN02TN</nciodm:CDISCSubmissionValue>
                <nciodm:CDISCSynonym>Tanner Scale Boy Clinical Classification Test Name</nciodm:CDISCSynonym>
                <nciodm:PreferredTerm>CDISC Clinical Classification Tanner Scale-Boy Test Name Terminology</nciodm:PreferredTerm>
            </CodeList>
            
