<CodeList xmlns="http://www.cdisc.org/ns/odm/v1.3" xmlns:nciodm="http://ncicb.nci.nih.gov/xml/odm/EVS/CDISC" xmlns:xs="http://www.w3.org/2001/XMLSchema-instance" OID="CL.C85491.MICROORG" Name="Microorganism" DataType="text" nciodm:ExtCodeID="C85491" nciodm:CodeListExtensible="Yes">
                <Description>
                    <TranslatedText xml:lang="en">Microorganisms, bacteria, fungi and other organisms.</TranslatedText>
                </Description>
                <EnumeratedItem CodedValue="ABIOTROPHIA" nciodm:ExtCodeID="C86077">
                    <nciodm:CDISCDefinition>Any bacteria that is not assigned to the species level but can be assigned to the Abiotrophia genus level.</nciodm:CDISCDefinition>
                    <nciodm:PreferredTerm>Abiotrophia</nciodm:PreferredTerm>
                </EnumeratedItem>
                <EnumeratedItem CodedValue="ABIOTROPHIA DEFECTIVA" nciodm:ExtCodeID="C86078">
                    <nciodm:CDISCDefinition>Any bacterial organism that can be assigned to the species Abiotrophia defectiva.</nciodm:CDISCDefinition>
                    <nciodm:PreferredTerm>Abiotrophia defectiva</nciodm:PreferredTerm>
                </EnumeratedItem>
                <EnumeratedItem CodedValue="ABSIDIA" nciodm:ExtCodeID="C119580">
                    <nciodm:CDISCDefinition>Any fungal organism that is not assigned to the species level but can be assigned to the Absidia genus level.</nciodm:CDISCDefinition>
                    <nciodm:PreferredTerm>Absidia</nciodm:PreferredTerm>
                </EnumeratedItem>
                <EnumeratedItem CodedValue="ACANTHAMOEBA" nciodm:ExtCodeID="C118934">
                    <nciodm:CDISCDefinition>Any amoebic organism that is not assigned to the species level but can be assigned to the Acanthamoeba genus level.</nciodm:CDISCDefinition>
                    <nciodm:PreferredTerm>Acanthamoeba</nciodm:PreferredTerm>
                </EnumeratedItem>
                <EnumeratedItem CodedValue="ACANTHAMOEBA ASTRONYXIS" nciodm:ExtCodeID="C119297">
                    <nciodm:CDISCDefinition>Any amoebic organism that can be assigned to the species Acanthamoeba astronyxis.</nciodm:CDISCDefinition>
                    <nciodm:PreferredTerm>Acanthamoeba astronyxis</nciodm:PreferredTerm>
                </EnumeratedItem>
                <EnumeratedItem CodedValue="ACANTHAMOEBA CASTELLANII" nciodm:ExtCodeID="C119298">
                    <nciodm:CDISCDefinition>Any amoebic organism that can be assigned to the species Acanthamoeba castellanii.</nciodm:CDISCDefinition>
                    <nciodm:PreferredTerm>Acanthamoeba castellanii</nciodm:PreferredTerm>
                </EnumeratedItem>
                <EnumeratedItem CodedValue="ACANTHAMOEBA CULBERTSONI" nciodm:ExtCodeID="C119299">
                    <nciodm:CDISCDefinition>Any amoebic organism that can be assigned to the species Acanthamoeba culbertsoni.</nciodm:CDISCDefinition>
                    <nciodm:PreferredTerm>Acanthamoeba culbertsoni</nciodm:PreferredTerm>
                </EnumeratedItem>
                <EnumeratedItem CodedValue="ACANTHAMOEBA GRIFFINI" nciodm:ExtCodeID="C119300">
                    <nciodm:CDISCDefinition>Any amoebic organism that can be assigned to the species Acanthamoeba griffini.</nciodm:CDISCDefinition>
                    <nciodm:PreferredTerm>Acanthamoeba griffini</nciodm:PreferredTerm>
                </EnumeratedItem>
                <EnumeratedItem CodedValue="ACANTHAMOEBA HATCHETTI" nciodm:ExtCodeID="C119301">
                    <nciodm:CDISCDefinition>Any amoebic organism that can be assigned to the species Acanthamoeba hatchetti.</nciodm:CDISCDefinition>
                    <nciodm:PreferredTerm>Acanthamoeba hatchetti</nciodm:PreferredTerm>
                </EnumeratedItem>
                <EnumeratedItem CodedValue="ACANTHAMOEBA LUGDUNENSIS" nciodm:ExtCodeID="C119302">
                    <nciodm:CDISCDefinition>Any amoebic organism that can be assigned to the species Acanthamoeba lugdunensis.</nciodm:CDISCDefinition>
                    <nciodm:PreferredTerm>Acanthamoeba lugdunensis</nciodm:PreferredTerm>
                </EnumeratedItem>
                <EnumeratedItem CodedValue="ACANTHAMOEBA PALESTINENSIS" nciodm:ExtCodeID="C119303">
                    <nciodm:CDISCDefinition>Any amoebic organism that can be assigned to the species Acanthamoeba palestinensis.</nciodm:CDISCDefinition>
                    <nciodm:PreferredTerm>Acanthamoeba palestinensis</nciodm:PreferredTerm>
                </EnumeratedItem>
                <EnumeratedItem CodedValue="ACANTHAMOEBA POLYPHAGA" nciodm:ExtCodeID="C119304">
                    <nciodm:CDISCDefinition>Any amoebic organism that can be assigned to the species Acanthamoeba polyphaga.</nciodm:CDISCDefinition>
                    <nciodm:PreferredTerm>Acanthamoeba polyphaga</nciodm:PreferredTerm>
                </EnumeratedItem>
                <EnumeratedItem CodedValue="ACANTHAMOEBA QUINA" nciodm:ExtCodeID="C119305">
                    <nciodm:CDISCDefinition>Any amoebic organism that can be assigned to the species Acanthamoeba quina.</nciodm:CDISCDefinition>
                    <nciodm:PreferredTerm>Acanthamoeba quina</nciodm:PreferredTerm>
                </EnumeratedItem>
                <EnumeratedItem CodedValue="ACANTHAMOEBA RHYSODES" nciodm:ExtCodeID="C119306">
                    <nciodm:CDISCDefinition>Any amoebic organism that can be assigned to the species Acanthamoeba rhysodes.</nciodm:CDISCDefinition>
                    <nciodm:PreferredTerm>Acanthamoeba rhysodes</nciodm:PreferredTerm>
                </EnumeratedItem>
                <EnumeratedItem CodedValue="ACHROMOBACTER" nciodm:ExtCodeID="C86079">
                    <nciodm:CDISCDefinition>Any bacteria that is not assigned to the species level but can be assigned to the Achromobacter genus level.</nciodm:CDISCDefinition>
                    <nciodm:PreferredTerm>Achromobacter</nciodm:PreferredTerm>
                </EnumeratedItem>
                <EnumeratedItem CodedValue="ACHROMOBACTER DENITRIFICANS" nciodm:ExtCodeID="C86080">
                    <nciodm:CDISCSynonym>Alcaligenes denitrificans</nciodm:CDISCSynonym>
                    <nciodm:CDISCDefinition>Any bacterial organism that can be assigned to the species Achromobacter denitrificans.</nciodm:CDISCDefinition>
                    <nciodm:PreferredTerm>Achromobacter denitrificans</nciodm:PreferredTerm>
                </EnumeratedItem>
                <EnumeratedItem CodedValue="ACHROMOBACTER PIECHAUDII" nciodm:ExtCodeID="C86081">
                    <nciodm:CDISCDefinition>Any bacterial organism that can be assigned to the species Achromobacter piechaudii.</nciodm:CDISCDefinition>
                    <nciodm:PreferredTerm>Achromobacter piechaudii</nciodm:PreferredTerm>
                </EnumeratedItem>
                <EnumeratedItem CodedValue="ACHROMOBACTER RUHLANDII" nciodm:ExtCodeID="C119307">
                    <nciodm:CDISCSynonym>Alcaligenes ruhlandii</nciodm:CDISCSynonym>
                    <nciodm:CDISCSynonym>Hydrogenomonas ruhlandii</nciodm:CDISCSynonym>
                    <nciodm:CDISCSynonym>Pseudomonas ruhlandii</nciodm:CDISCSynonym>
                    <nciodm:CDISCDefinition>Any bacterial organism that can be assigned to the species Achromobacter ruhlandii.</nciodm:CDISCDefinition>
                    <nciodm:PreferredTerm>Achromobacter ruhlandii</nciodm:PreferredTerm>
                </EnumeratedItem>
                <EnumeratedItem CodedValue="ACHROMOBACTER XYLOSOXIDANS" nciodm:ExtCodeID="C86082">
                    <nciodm:CDISCSynonym>Alcaligenes xylosoxidans</nciodm:CDISCSynonym>
                    <nciodm:CDISCDefinition>Any bacterial organism that can be assigned to the species Achromobacter xylosoxidans.</nciodm:CDISCDefinition>
                    <nciodm:PreferredTerm>Achromobacter xylosoxidans</nciodm:PreferredTerm>
                </EnumeratedItem>
                <EnumeratedItem CodedValue="ACIDAMINOCOCCUS" nciodm:ExtCodeID="C86083">
                    <nciodm:CDISCDefinition>Any bacteria that is not assigned to the species level but can be assigned to the Acidaminococcus genus level.</nciodm:CDISCDefinition>
                    <nciodm:PreferredTerm>Acidaminococcus</nciodm:PreferredTerm>
                </EnumeratedItem>
                <EnumeratedItem CodedValue="ACIDAMINOCOCCUS FERMENTANS" nciodm:ExtCodeID="C86084">
                    <nciodm:CDISCDefinition>Any bacterial organism that can be assigned to the species Acidaminococcus fermentans.</nciodm:CDISCDefinition>
                    <nciodm:PreferredTerm>Acidaminococcus fermentans</nciodm:PreferredTerm>
                </EnumeratedItem>
                <EnumeratedItem CodedValue="ACIDAMINOCOCCUS INTESTINI" nciodm:ExtCodeID="C127680">
                    <nciodm:CDISCDefinition>Any bacterial organism that can be assigned to the species Acidaminococcus intestini.</nciodm:CDISCDefinition>
                    <nciodm:PreferredTerm>Acidaminococcus intestini</nciodm:PreferredTerm>
                </EnumeratedItem>
                <EnumeratedItem CodedValue="ACIDOVORAX" nciodm:ExtCodeID="C86085">
                    <nciodm:CDISCDefinition>Any bacteria that is not assigned to the species level but can be assigned to the Acidovorax genus level.</nciodm:CDISCDefinition>
                    <nciodm:PreferredTerm>Acidovorax</nciodm:PreferredTerm>
                </EnumeratedItem>
                <EnumeratedItem CodedValue="ACIDOVORAX DELAFIELDII" nciodm:ExtCodeID="C86086">
                    <nciodm:CDISCDefinition>Any bacterial organism that can be assigned to the species Acidovorax delafieldii.</nciodm:CDISCDefinition>
                    <nciodm:PreferredTerm>Acidovorax delafieldii</nciodm:PreferredTerm>
                </EnumeratedItem>
                <EnumeratedItem CodedValue="ACIDOVORAX FACILIS" nciodm:ExtCodeID="C86087">
                    <nciodm:CDISCDefinition>Any bacterial organism that can be assigned to the species Acidovorax facilis.</nciodm:CDISCDefinition>
                    <nciodm:PreferredTerm>Acidovorax facilis</nciodm:PreferredTerm>
                </EnumeratedItem>
                <EnumeratedItem CodedValue="ACIDOVORAX TEMPERANS" nciodm:ExtCodeID="C86088">
                    <nciodm:CDISCDefinition>Any bacterial organism that can be assigned to the species Acidovorax temperans.</nciodm:CDISCDefinition>
                    <nciodm:PreferredTerm>Acidovorax temperans</nciodm:PreferredTerm>
                </EnumeratedItem>
                <EnumeratedItem CodedValue="ACINETOBACTER" nciodm:ExtCodeID="C76200">
                    <nciodm:CDISCDefinition>Any bacteria that is not assigned to the species level but can be assigned to the Acinetobacter genus level.</nciodm:CDISCDefinition>
                    <nciodm:PreferredTerm>Acinetobacter</nciodm:PreferredTerm>
                </EnumeratedItem>
                <EnumeratedItem CodedValue="ACINETOBACTER ANITRATUS" nciodm:ExtCodeID="C86089">
                    <nciodm:CDISCSynonym>Acinetobacter baumannii</nciodm:CDISCSynonym>
                    <nciodm:CDISCSynonym>Acinetobacter calcoaceticus subsp. anitratus</nciodm:CDISCSynonym>
                    <nciodm:CDISCDefinition>Any bacterial organism that can be assigned to the species Acinetobacter anitratus.</nciodm:CDISCDefinition>
                    <nciodm:PreferredTerm>Acinetobacter anitratus</nciodm:PreferredTerm>
                </EnumeratedItem>
                <EnumeratedItem CodedValue="ACINETOBACTER CALCOACETICUS" nciodm:ExtCodeID="C86090">
                    <nciodm:CDISCDefinition>Any bacterial organism that can be assigned to the species Acinetobacter calcoaceticus.</nciodm:CDISCDefinition>
                    <nciodm:PreferredTerm>Acinetobacter calcoaceticus</nciodm:PreferredTerm>
                </EnumeratedItem>
                <EnumeratedItem CodedValue="ACINETOBACTER CALCOACETICUS-BAUMANNII COMPLEX" nciodm:ExtCodeID="C86091">
                    <nciodm:CDISCDefinition>A non-taxonomic grouping of bacterial species that are phenotypically or genetically similar to the Acinetobacter calcoaceticus and Acinetobacter baumannii species.</nciodm:CDISCDefinition>
                    <nciodm:PreferredTerm>Acinetobacter calcoaceticus/baumannii Complex</nciodm:PreferredTerm>
                </EnumeratedItem>
                <EnumeratedItem CodedValue="ACINETOBACTER HAEMOLYTICUS" nciodm:ExtCodeID="C86092">
                    <nciodm:CDISCDefinition>Any bacterial organism that can be assigned to the species Acinetobacter haemolyticus.</nciodm:CDISCDefinition>
                    <nciodm:PreferredTerm>Acinetobacter haemolyticus</nciodm:PreferredTerm>
                </EnumeratedItem>
                <EnumeratedItem CodedValue="ACINETOBACTER JOHNSONII" nciodm:ExtCodeID="C86093">
                    <nciodm:CDISCDefinition>Any bacterial organism that can be assigned to the species Acinetobacter johnsonii.</nciodm:CDISCDefinition>
                    <nciodm:PreferredTerm>Acinetobacter johnsonii</nciodm:PreferredTerm>
                </EnumeratedItem>
                <EnumeratedItem CodedValue="ACINETOBACTER JUNII" nciodm:ExtCodeID="C86094">
                    <nciodm:CDISCDefinition>Any bacterial organism that can be assigned to the species Acinetobacter junii.</nciodm:CDISCDefinition>
                    <nciodm:PreferredTerm>Acinetobacter junii</nciodm:PreferredTerm>
                </EnumeratedItem>
                <EnumeratedItem CodedValue="ACINETOBACTER LWOFFII" nciodm:ExtCodeID="C86095">
                    <nciodm:CDISCSynonym>Acinetobacter calcoaceticus subsp. lwoffii</nciodm:CDISCSynonym>
                    <nciodm:CDISCDefinition>Any bacterial organism that can be assigned to the species Acinetobacter lwoffii.</nciodm:CDISCDefinition>
                    <nciodm:PreferredTerm>Acinetobacter lwoffii</nciodm:PreferredTerm>
                </EnumeratedItem>
                <EnumeratedItem CodedValue="ACINETOBACTER PARVUS" nciodm:ExtCodeID="C119308">
                    <nciodm:CDISCSynonym>Acinetobacter sp. phenon 4</nciodm:CDISCSynonym>
                    <nciodm:CDISCDefinition>Any bacterial organism that can be assigned to the species Acinetobacter parvus.</nciodm:CDISCDefinition>
                    <nciodm:PreferredTerm>Acinetobacter parvus</nciodm:PreferredTerm>
                </EnumeratedItem>
                <EnumeratedItem CodedValue="ACINETOBACTER RADIORESISTENS" nciodm:ExtCodeID="C86096">
                    <nciodm:CDISCDefinition>Any bacterial organism that can be assigned to the species Acinetobacter radioresistens.</nciodm:CDISCDefinition>
                    <nciodm:PreferredTerm>Acinetobacter radioresistens</nciodm:PreferredTerm>
                </EnumeratedItem>
                <EnumeratedItem CodedValue="ACINETOBACTER URSINGII" nciodm:ExtCodeID="C119309">
                    <nciodm:CDISCSynonym>Acinetobacter sp. phenon 1</nciodm:CDISCSynonym>
                    <nciodm:CDISCDefinition>Any bacterial organism that can be assigned to the species Acinetobacter ursingii.</nciodm:CDISCDefinition>
                    <nciodm:PreferredTerm>Acinetobacter ursingii</nciodm:PreferredTerm>
                </EnumeratedItem>
                <EnumeratedItem CodedValue="ACREMONIUM" nciodm:ExtCodeID="C118935">
                    <nciodm:CDISCDefinition>Any fungal organism that is not assigned to the species level but can be assigned to the Acremonium genus level.</nciodm:CDISCDefinition>
                    <nciodm:PreferredTerm>Acremonium</nciodm:PreferredTerm>
                </EnumeratedItem>
                <EnumeratedItem CodedValue="ACREMONIUM ATROGRISEUM" nciodm:ExtCodeID="C119310">
                    <nciodm:CDISCSynonym>Gliomastix atrogriseum</nciodm:CDISCSynonym>
                    <nciodm:CDISCSynonym>Phaeoscopulariopsis atrogrisea</nciodm:CDISCSynonym>
                    <nciodm:CDISCDefinition>Any fungal organism that can be assigned to the species Acremonium atrogriseum.</nciodm:CDISCDefinition>
                    <nciodm:PreferredTerm>Acremonium atrogriseum</nciodm:PreferredTerm>
                </EnumeratedItem>
                <EnumeratedItem CodedValue="ACTINOBACILLUS" nciodm:ExtCodeID="C86097">
                    <nciodm:CDISCDefinition>Any bacteria that is not assigned to the species level but can be assigned to the Actinobacillus genus level.</nciodm:CDISCDefinition>
                    <nciodm:PreferredTerm>Actinobacillus</nciodm:PreferredTerm>
                </EnumeratedItem>
                <EnumeratedItem CodedValue="ACTINOBACILLUS ACTINOMYCETEMCOMITANS" nciodm:ExtCodeID="C86098">
                    <nciodm:CDISCDefinition>Any bacterial organism that can be assigned to the species Actinobacillus actinomycetemcomitans.</nciodm:CDISCDefinition>
                    <nciodm:PreferredTerm>Actinobacillus actinomycetemcomitans</nciodm:PreferredTerm>
                </EnumeratedItem>
                <EnumeratedItem CodedValue="ACTINOBACILLUS EQUULI" nciodm:ExtCodeID="C86099">
                    <nciodm:CDISCDefinition>Any bacterial organism that can be assigned to the species Actinobacillus equuli.</nciodm:CDISCDefinition>
                    <nciodm:PreferredTerm>Actinobacillus equuli</nciodm:PreferredTerm>
                </EnumeratedItem>
                <EnumeratedItem CodedValue="ACTINOBACILLUS LIGNIERESII" nciodm:ExtCodeID="C86100">
                    <nciodm:CDISCDefinition>Any bacterial organism that can be assigned to the species Actinobacillus ligniersii.</nciodm:CDISCDefinition>
                    <nciodm:PreferredTerm>Actinobacillus lignieresii</nciodm:PreferredTerm>
                </EnumeratedItem>
                <EnumeratedItem CodedValue="ACTINOBACILLUS PLEUROPNEUMONIAE" nciodm:ExtCodeID="C86101">
                    <nciodm:CDISCSynonym>Haemophilus pleuropneumoniae</nciodm:CDISCSynonym>
                    <nciodm:CDISCDefinition>Any bacterial organism that can be assigned to the species Actinobacillus pleuropneumoniae.</nciodm:CDISCDefinition>
                    <nciodm:PreferredTerm>Actinobacillus pleuropneumoniae</nciodm:PreferredTerm>
                </EnumeratedItem>
                <EnumeratedItem CodedValue="ACTINOBACILLUS SUIS" nciodm:ExtCodeID="C86102">
                    <nciodm:CDISCDefinition>Any bacterial organism that can be assigned to the species Actinobacillus suis.</nciodm:CDISCDefinition>
                    <nciodm:PreferredTerm>Actinobacillus suis</nciodm:PreferredTerm>
                </EnumeratedItem>
                <EnumeratedItem CodedValue="ACTINOBACILLUS UREAE" nciodm:ExtCodeID="C86103">
                    <nciodm:CDISCSynonym>Pasteurella ureae</nciodm:CDISCSynonym>
                    <nciodm:CDISCDefinition>Any bacterial organism that can be assigned to the species Actinobacillus ureae.</nciodm:CDISCDefinition>
                    <nciodm:PreferredTerm>Actinobacillus ureae</nciodm:PreferredTerm>
                </EnumeratedItem>
                <EnumeratedItem CodedValue="ACTINOBACULUM SCHAALII" nciodm:ExtCodeID="C119311">
                    <nciodm:CDISCDefinition>Any bacterial organism that can be assigned to the species Actinobaculum schaalii.</nciodm:CDISCDefinition>
                    <nciodm:PreferredTerm>Actinobaculum schaalii</nciodm:PreferredTerm>
                </EnumeratedItem>
                <EnumeratedItem CodedValue="ACTINOMADURA" nciodm:ExtCodeID="C86104">
                    <nciodm:CDISCDefinition>Any bacteria that is not assigned to the species level but can be assigned to the Actinomadura genus level.</nciodm:CDISCDefinition>
                    <nciodm:PreferredTerm>Actinomadura</nciodm:PreferredTerm>
                </EnumeratedItem>
                <EnumeratedItem CodedValue="ACTINOMADURA MADURAE" nciodm:ExtCodeID="C86105">
                    <nciodm:CDISCDefinition>Any bacterial organism that can be assigned to the species Actinomadura madurae.</nciodm:CDISCDefinition>
                    <nciodm:PreferredTerm>Actinomadura madurae</nciodm:PreferredTerm>
                </EnumeratedItem>
                <EnumeratedItem CodedValue="ACTINOMADURA PELLETIERI" nciodm:ExtCodeID="C86106">
                    <nciodm:CDISCDefinition>Any bacterial organism that can be assigned to the species Actinomadura pelletieri.</nciodm:CDISCDefinition>
                    <nciodm:PreferredTerm>Actinomadura pelletieri</nciodm:PreferredTerm>
                </EnumeratedItem>
                <EnumeratedItem CodedValue="ACTINOMYCES" nciodm:ExtCodeID="C76201">
                    <nciodm:CDISCDefinition>Any bacteria that is not assigned to the species level but can be assigned to the Actinomyces genus level.</nciodm:CDISCDefinition>
                    <nciodm:PreferredTerm>Actinomyces</nciodm:PreferredTerm>
                </EnumeratedItem>
                <EnumeratedItem CodedValue="ACTINOMYCES BOVIS" nciodm:ExtCodeID="C86107">
                    <nciodm:CDISCSynonym>Actinocladothrix bovis</nciodm:CDISCSynonym>
                    <nciodm:CDISCSynonym>Cladothrix bovis</nciodm:CDISCSynonym>
                    <nciodm:CDISCSynonym>Discomyces bovis</nciodm:CDISCSynonym>
                    <nciodm:CDISCSynonym>Nocardia bovis</nciodm:CDISCSynonym>
                    <nciodm:CDISCSynonym>Oospora bovis</nciodm:CDISCSynonym>
                    <nciodm:CDISCSynonym>Proactinomyces bovis</nciodm:CDISCSynonym>
                    <nciodm:CDISCSynonym>Sarcomyces bovis</nciodm:CDISCSynonym>
                    <nciodm:CDISCSynonym>Sphaerotilus bovis</nciodm:CDISCSynonym>
                    <nciodm:CDISCSynonym>Streptothrix bovis</nciodm:CDISCSynonym>
                    <nciodm:CDISCDefinition>Any bacterial organism that can be assigned to the species Actinomyces bovis.</nciodm:CDISCDefinition>
                    <nciodm:PreferredTerm>Actinomyces bovis</nciodm:PreferredTerm>
                </EnumeratedItem>
                <EnumeratedItem CodedValue="ACTINOMYCES EUROPAEUS" nciodm:ExtCodeID="C119312">
                    <nciodm:CDISCDefinition>Any bacterial organism that can be assigned to the species Actinomyces europaeus.</nciodm:CDISCDefinition>
                    <nciodm:PreferredTerm>Actinomyces europaeus</nciodm:PreferredTerm>
                </EnumeratedItem>
                <EnumeratedItem CodedValue="ACTINOMYCES ISRAELII" nciodm:ExtCodeID="C86108">
                    <nciodm:CDISCDefinition>Any bacterial organism that can be assigned to the species Actinomyces israelii.</nciodm:CDISCDefinition>
                    <nciodm:PreferredTerm>Actinomyces israelii</nciodm:PreferredTerm>
                </EnumeratedItem>
                <EnumeratedItem CodedValue="ACTINOMYCES MEYERII" nciodm:ExtCodeID="C86109">
                    <nciodm:CDISCDefinition>Any bacterial organism that can be assigned to the species Actinomyces meyerii.</nciodm:CDISCDefinition>
                    <nciodm:PreferredTerm>Actinomyces meyerii</nciodm:PreferredTerm>
                </EnumeratedItem>
                <EnumeratedItem CodedValue="ACTINOMYCES NAESLUNDII" nciodm:ExtCodeID="C86110">
                    <nciodm:CDISCDefinition>Any bacterial organism that can be assigned to the species Actinomyces naseslundii.</nciodm:CDISCDefinition>
                    <nciodm:PreferredTerm>Actinomyces naeslundii</nciodm:PreferredTerm>
                </EnumeratedItem>
                <EnumeratedItem CodedValue="ACTINOMYCES NEUII" nciodm:ExtCodeID="C86111">
                    <nciodm:CDISCDefinition>Any bacterial organism that can be assigned to the species Actinomyces neuii.</nciodm:CDISCDefinition>
                    <nciodm:PreferredTerm>Actinomyces neuii</nciodm:PreferredTerm>
                </EnumeratedItem>
                <EnumeratedItem CodedValue="ACTINOMYCES NEUII SUBSP. NEUII" nciodm:ExtCodeID="C119313">
                    <nciodm:CDISCSynonym>CDC coryneform group 1</nciodm:CDISCSynonym>
                    <nciodm:CDISCDefinition>Any bacterial organism that can be assigned to the species Actinomyces neuii subspecies neuii.</nciodm:CDISCDefinition>
                    <nciodm:PreferredTerm>Actinomyces neuii Subspecies neuii</nciodm:PreferredTerm>
                </EnumeratedItem>
                <EnumeratedItem CodedValue="ACTINOMYCES ODONTOLYTICUS" nciodm:ExtCodeID="C86112">
                    <nciodm:CDISCDefinition>Any bacterial organism that can be assigned to the species Actinomyces odontolyticus.</nciodm:CDISCDefinition>
                    <nciodm:PreferredTerm>Actinomyces odontolyticus</nciodm:PreferredTerm>
                </EnumeratedItem>
                <EnumeratedItem CodedValue="ACTINOMYCES RADINGAE" nciodm:ExtCodeID="C86113">
                    <nciodm:CDISCDefinition>Any bacterial organism that can be assigned to the species Actinomyces radingae.</nciodm:CDISCDefinition>
                    <nciodm:PreferredTerm>Actinomyces radingae</nciodm:PreferredTerm>
                </EnumeratedItem>
                <EnumeratedItem CodedValue="ACTINOMYCES TURICENSIS" nciodm:ExtCodeID="C86114">
                    <nciodm:CDISCDefinition>Any bacterial organism that can be assigned to the species Actinomyces turicensis.</nciodm:CDISCDefinition>
                    <nciodm:PreferredTerm>Actinomyces turicensis</nciodm:PreferredTerm>
                </EnumeratedItem>
                <EnumeratedItem CodedValue="ACTINOMYCES VISCOSUS" nciodm:ExtCodeID="C86115">
                    <nciodm:CDISCDefinition>Any bacterial organism that can be assigned to the species Actinomyces viscosus.</nciodm:CDISCDefinition>
                    <nciodm:PreferredTerm>Actinomyces viscosus</nciodm:PreferredTerm>
                </EnumeratedItem>
                <EnumeratedItem CodedValue="ADENOVIRUS" nciodm:ExtCodeID="C14179">
                    <nciodm:CDISCSynonym>Adenoviridae</nciodm:CDISCSynonym>
                    <nciodm:CDISCDefinition>Any viral organism that can be assigned to the family Adenoviridae.</nciodm:CDISCDefinition>
                    <nciodm:PreferredTerm>Adenovirus</nciodm:PreferredTerm>
                </EnumeratedItem>
                <EnumeratedItem CodedValue="AEROBIC GRAM-NEGATIVE BACILLUS" nciodm:ExtCodeID="C86116">
                    <nciodm:CDISCSynonym>Aerobic Gram-negative Rod</nciodm:CDISCSynonym>
                    <nciodm:CDISCDefinition>Any rod-shaped bacteria with an oxygen-based metabolism and has a cell wall that contains low levels of peptidoglycan and stains pink with the Gram staining technique.</nciodm:CDISCDefinition>
                    <nciodm:PreferredTerm>Aerobic Gram Negative Bacillus</nciodm:PreferredTerm>
                </EnumeratedItem>
                <EnumeratedItem CodedValue="AEROBIC GRAM-NEGATIVE COCCOBACILLUS" nciodm:ExtCodeID="C125954">
                    <nciodm:CDISCDefinition>Any bacterial organism with an oxygen-based metabolism, and is intermediate in morphology between a spherical-shaped coccus and a rod-shaped bacillus that contains low levels of peptidoglycan in its cell wall and stains pink with the Gram staining technique.</nciodm:CDISCDefinition>
                    <nciodm:PreferredTerm>Aerobic Gram-Negative Coccobacillus</nciodm:PreferredTerm>
                </EnumeratedItem>
                <EnumeratedItem CodedValue="AEROBIC GRAM-NEGATIVE COCCUS" nciodm:ExtCodeID="C86117">
                    <nciodm:CDISCDefinition>Any spherical-shaped bacteria with an oxygen-based metabolism and a cell wall that contains low levels of peptidoglycan and stains pink with the Gram staining technique.</nciodm:CDISCDefinition>
                    <nciodm:PreferredTerm>Aerobic Gram Negative Coccus</nciodm:PreferredTerm>
                </EnumeratedItem>
                <EnumeratedItem CodedValue="AEROBIC GRAM-POSITIVE BACILLUS" nciodm:ExtCodeID="C86118">
                    <nciodm:CDISCSynonym>Aerobic Gram-positive Rod</nciodm:CDISCSynonym>
                    <nciodm:CDISCDefinition>Any rod-shaped bacteria with an oxygen-based metabolism and has a peptidoglycan-rich cell wall that stains dark purple with the Gram staining technique.</nciodm:CDISCDefinition>
                    <nciodm:PreferredTerm>Aerobic Gram Positive Bacillus</nciodm:PreferredTerm>
                </EnumeratedItem>
                <EnumeratedItem CodedValue="AEROBIC GRAM-POSITIVE COCCUS" nciodm:ExtCodeID="C86119">
                    <nciodm:CDISCDefinition>Any spherical-shaped bacteria with an oxygen-based metabolism and a peptidoglycan-rich cell wall that stains dark purple with the Gram staining technique.</nciodm:CDISCDefinition>
                    <nciodm:PreferredTerm>Aerobic Gram Positive Coccus</nciodm:PreferredTerm>
                </EnumeratedItem>
                <EnumeratedItem CodedValue="AEROBIC STREPTOCOCCUS" nciodm:ExtCodeID="C86120">
                    <nciodm:CDISCDefinition>Any bacteria assigned to the genus Streptococcus that requires oxygen to grow or respirate.</nciodm:CDISCDefinition>
                    <nciodm:PreferredTerm>Aerobic Streptococcus</nciodm:PreferredTerm>
                </EnumeratedItem>
                <EnumeratedItem CodedValue="AEROCOCCUS" nciodm:ExtCodeID="C86121">
                    <nciodm:CDISCDefinition>Any bacteria that is not assigned to the species level but can be assigned to the Aerococcus genus level.</nciodm:CDISCDefinition>
                    <nciodm:PreferredTerm>Aerococcus</nciodm:PreferredTerm>
                </EnumeratedItem>
                <EnumeratedItem CodedValue="AEROCOCCUS SANGUINICOLA" nciodm:ExtCodeID="C119314">
                    <nciodm:CDISCDefinition>Any bacterial organism that can be assigned to the species Aerococcus sanguinicola.</nciodm:CDISCDefinition>
                    <nciodm:PreferredTerm>Aerococcus sanguinicola</nciodm:PreferredTerm>
                </EnumeratedItem>
                <EnumeratedItem CodedValue="AEROCOCCUS URINAE" nciodm:ExtCodeID="C86122">
                    <nciodm:CDISCDefinition>Any bacterial organism that can be assigned to the species Aerococcus urinae.</nciodm:CDISCDefinition>
                    <nciodm:PreferredTerm>Aerococcus urinae</nciodm:PreferredTerm>
                </EnumeratedItem>
                <EnumeratedItem CodedValue="AEROCOCCUS VIRIDANS" nciodm:ExtCodeID="C86123">
                    <nciodm:CDISCDefinition>Any bacterial organism that can be assigned to the species Aerococcus viridans.</nciodm:CDISCDefinition>
                    <nciodm:PreferredTerm>Aerococcus viridans</nciodm:PreferredTerm>
                </EnumeratedItem>
                <EnumeratedItem CodedValue="AEROMONAS" nciodm:ExtCodeID="C86124">
                    <nciodm:CDISCDefinition>Any bacteria that is not assigned to the species level but can be assigned to the Aeromonas genus level.</nciodm:CDISCDefinition>
                    <nciodm:PreferredTerm>Aeromonas</nciodm:PreferredTerm>
                </EnumeratedItem>
                <EnumeratedItem CodedValue="AEROMONAS HYDROPHILA" nciodm:ExtCodeID="C86125">
                    <nciodm:CDISCDefinition>Any bacterial organism that can be assigned to the species Aeromonas hydrophila.</nciodm:CDISCDefinition>
                    <nciodm:PreferredTerm>Aeromonas hydrophila</nciodm:PreferredTerm>
                </EnumeratedItem>
                <EnumeratedItem CodedValue="AEROMONAS JANDAEI" nciodm:ExtCodeID="C86126">
                    <nciodm:CDISCDefinition>Any bacterial organism that can be assigned to the species Aeromonas jandaei.</nciodm:CDISCDefinition>
                    <nciodm:PreferredTerm>Aeromonas jandaei</nciodm:PreferredTerm>
                </EnumeratedItem>
                <EnumeratedItem CodedValue="AEROMONAS PUNCTATA" nciodm:ExtCodeID="C86127">
                    <nciodm:CDISCSynonym>Aeromonas caviae</nciodm:CDISCSynonym>
                    <nciodm:CDISCDefinition>Any bacterial organism that can be assigned to the species Aeromonas punctata.</nciodm:CDISCDefinition>
                    <nciodm:PreferredTerm>Aeromonas punctata</nciodm:PreferredTerm>
                </EnumeratedItem>
                <EnumeratedItem CodedValue="AEROMONAS SALMONICIDA" nciodm:ExtCodeID="C86128">
                    <nciodm:CDISCDefinition>Any bacterial organism that can be assigned to the species Aeromonas salmonicida.</nciodm:CDISCDefinition>
                    <nciodm:PreferredTerm>Aeromonas salmonicida</nciodm:PreferredTerm>
                </EnumeratedItem>
                <EnumeratedItem CodedValue="AEROMONAS SCHUBERTII" nciodm:ExtCodeID="C86129">
                    <nciodm:CDISCDefinition>Any bacterial organism that can be assigned to the species Aeromonas schubertii.</nciodm:CDISCDefinition>
                    <nciodm:PreferredTerm>Aeromonas schubertii</nciodm:PreferredTerm>
                </EnumeratedItem>
                <EnumeratedItem CodedValue="AEROMONAS SOBRIA" nciodm:ExtCodeID="C86130">
                    <nciodm:CDISCDefinition>Any bacterial organism that can be assigned to the species Aeromonas sobria.</nciodm:CDISCDefinition>
                    <nciodm:PreferredTerm>Aeromonas sobria</nciodm:PreferredTerm>
                </EnumeratedItem>
                <EnumeratedItem CodedValue="AEROMONAS VERONII" nciodm:ExtCodeID="C86131">
                    <nciodm:CDISCDefinition>Any bacterial organism that can be assigned to the species Aeromonas veronii.</nciodm:CDISCDefinition>
                    <nciodm:PreferredTerm>Aeromonas veronii</nciodm:PreferredTerm>
                </EnumeratedItem>
                <EnumeratedItem CodedValue="AGGREGATIBACTER" nciodm:ExtCodeID="C86132">
                    <nciodm:CDISCDefinition>Any bacteria that is not assigned to the species level but can be assigned to the Aggregatibacter genus level.</nciodm:CDISCDefinition>
                    <nciodm:PreferredTerm>Aggregatibacter</nciodm:PreferredTerm>
                </EnumeratedItem>
                <EnumeratedItem CodedValue="AGGREGATIBACTER ACTINOMYCETEMCOMITANS" nciodm:ExtCodeID="C86133">
                    <nciodm:CDISCSynonym>Haemophilus actinomycetemcomitans</nciodm:CDISCSynonym>
                    <nciodm:CDISCDefinition>Any bacterial organism that can be assigned to the species Aggregatibacter actinomycetemcomitans.</nciodm:CDISCDefinition>
                    <nciodm:PreferredTerm>Aggregatibacter actinomycetemcomitans</nciodm:PreferredTerm>
                </EnumeratedItem>
                <EnumeratedItem CodedValue="AGGREGATIBACTER APHROPHILUS" nciodm:ExtCodeID="C86134">
                    <nciodm:CDISCSynonym>Haemophilus aphrophilus</nciodm:CDISCSynonym>
                    <nciodm:CDISCSynonym>Haemophilus paraphrophilus</nciodm:CDISCSynonym>
                    <nciodm:CDISCDefinition>Any bacterial organism that can be assigned to the species Aggregatibacter aphrophilus.</nciodm:CDISCDefinition>
                    <nciodm:PreferredTerm>Aggregatibacter aphrophilus</nciodm:PreferredTerm>
                </EnumeratedItem>
                <EnumeratedItem CodedValue="AGGREGATIBACTER APHROPHILUS, BETA-LACTAMASE NEGATIVE" nciodm:ExtCodeID="C119315">
                    <nciodm:CDISCSynonym>Haemophilus aphrophilus, Beta-lactamase Negative</nciodm:CDISCSynonym>
                    <nciodm:CDISCDefinition>Any bacterial organism that can be assigned to the species Aggregatibacter aphrophilus and is beta-lactamase negative.</nciodm:CDISCDefinition>
                    <nciodm:PreferredTerm>Aggregatibacter aphrophilus, Beta-lactamase Negative</nciodm:PreferredTerm>
                </EnumeratedItem>
                <EnumeratedItem CodedValue="AGGREGATIBACTER APHROPHILUS, BETA-LACTAMASE POSITIVE" nciodm:ExtCodeID="C119316">
                    <nciodm:CDISCSynonym>Haemophilus aphrophilus, Beta-lactamase Positive</nciodm:CDISCSynonym>
                    <nciodm:CDISCDefinition>Any bacterial organism that can be assigned to the species Aggregatibacter aphrophilus and is beta-lactamase positive.</nciodm:CDISCDefinition>
                    <nciodm:PreferredTerm>Aggregatibacter aphrophilus, Beta-lactamase Positive</nciodm:PreferredTerm>
                </EnumeratedItem>
                <EnumeratedItem CodedValue="AGGREGATIBACTER APHROPHILUS, PENICILLINASE NEGATIVE" nciodm:ExtCodeID="C119317">
                    <nciodm:CDISCSynonym>Haemophilus aphrophilus, Penicillinase Negative</nciodm:CDISCSynonym>
                    <nciodm:CDISCDefinition>Any bacterial organism that can be assigned to the species Aggregatibacter aphrophilus and is penicillinase negative.</nciodm:CDISCDefinition>
                    <nciodm:PreferredTerm>Aggregatibacter aphrophilus, Penicillinase Negative</nciodm:PreferredTerm>
                </EnumeratedItem>
                <EnumeratedItem CodedValue="AGGREGATIBACTER APHROPHILUS, PENICILLINASE POSITIVE" nciodm:ExtCodeID="C119318">
                    <nciodm:CDISCSynonym>Haemophilus aphrophilus, Penicillinase Positive</nciodm:CDISCSynonym>
                    <nciodm:CDISCDefinition>Any bacterial organism that can be assigned to the species Aggregatibacter aphrophilus and is penicillinase positive.</nciodm:CDISCDefinition>
                    <nciodm:PreferredTerm>Aggregatibacter aphrophilus, Penicillinase Positive</nciodm:PreferredTerm>
                </EnumeratedItem>
                <EnumeratedItem CodedValue="AGGREGATIBACTER SEGNIS" nciodm:ExtCodeID="C86135">
                    <nciodm:CDISCSynonym>Haemophilus segnis</nciodm:CDISCSynonym>
                    <nciodm:CDISCDefinition>Any bacterial organism that can be assigned to the species Aggregatibacter segnis.</nciodm:CDISCDefinition>
                    <nciodm:PreferredTerm>Aggregatibacter segnis</nciodm:PreferredTerm>
                </EnumeratedItem>
                <EnumeratedItem CodedValue="AGROBACTERIUM" nciodm:ExtCodeID="C86011">
                    <nciodm:CDISCDefinition>Any bacteria that is not assigned to the species level but can be assigned to the Agrobacterium genus level.</nciodm:CDISCDefinition>
                    <nciodm:PreferredTerm>Agrobacterium</nciodm:PreferredTerm>
                </EnumeratedItem>
                <EnumeratedItem CodedValue="AGROBACTERIUM RADIOBACTER" nciodm:ExtCodeID="C86137">
                    <nciodm:CDISCDefinition>Any bacterial organism that can be assigned to the species Agrobacterium radiobacter.</nciodm:CDISCDefinition>
                    <nciodm:PreferredTerm>Agrobacterium radiobacter</nciodm:PreferredTerm>
                </EnumeratedItem>
                <EnumeratedItem CodedValue="AGROBACTERIUM TUMEFACIENS" nciodm:ExtCodeID="C86138">
                    <nciodm:CDISCSynonym>Rhizobium radiobacter</nciodm:CDISCSynonym>
                    <nciodm:CDISCDefinition>Any bacterial organism that can be assigned to the species Agrobacterium tumefaciens.</nciodm:CDISCDefinition>
                    <nciodm:PreferredTerm>Agrobacterium tumefaciens</nciodm:PreferredTerm>
                </EnumeratedItem>
                <EnumeratedItem CodedValue="AJELLOMYCES CAPSULATUS" nciodm:ExtCodeID="C77186">
                    <nciodm:CDISCDefinition>Any fungal organism that can be assigned to the species Ajellomyces capsulatus.</nciodm:CDISCDefinition>
                    <nciodm:PreferredTerm>Ajellomyces capsulatus</nciodm:PreferredTerm>
                </EnumeratedItem>
                <EnumeratedItem CodedValue="ALCALIGENES" nciodm:ExtCodeID="C86012">
                    <nciodm:CDISCDefinition>Any bacteria that is not assigned to the species level but can be assigned to the Alcaligenes genus level.</nciodm:CDISCDefinition>
                    <nciodm:PreferredTerm>Alcaligenes</nciodm:PreferredTerm>
                </EnumeratedItem>
                <EnumeratedItem CodedValue="ALCALIGENES FAECALIS" nciodm:ExtCodeID="C86140">
                    <nciodm:CDISCSynonym>Alcaligenes odorans</nciodm:CDISCSynonym>
                    <nciodm:CDISCDefinition>Any bacterial organism that can be assigned to the species Alcaligenes faecalis.</nciodm:CDISCDefinition>
                    <nciodm:PreferredTerm>Alcaligenes faecalis</nciodm:PreferredTerm>
                </EnumeratedItem>
                <EnumeratedItem CodedValue="ALISTIPES" nciodm:ExtCodeID="C86870">
                    <nciodm:CDISCDefinition>Any bacterial organism that is not assigned to the species level but can be assigned to the Alistipes genus level.</nciodm:CDISCDefinition>
                    <nciodm:PreferredTerm>Alistipes</nciodm:PreferredTerm>
                </EnumeratedItem>
                <EnumeratedItem CodedValue="ALISTIPES PUTREDINIS" nciodm:ExtCodeID="C86871">
                    <nciodm:CDISCSynonym>Bacteroides putredinis</nciodm:CDISCSynonym>
                    <nciodm:CDISCDefinition>Any bacterial organism that can be assigned to the species Alistipes putredinis.</nciodm:CDISCDefinition>
                    <nciodm:PreferredTerm>Alistipes putredinis</nciodm:PreferredTerm>
                </EnumeratedItem>
                <EnumeratedItem CodedValue="ALISTIPES SHAHII" nciodm:ExtCodeID="C114246">
                    <nciodm:CDISCDefinition>Any bacterial organism that can be assigned to the species Alistipes shahii.</nciodm:CDISCDefinition>
                    <nciodm:PreferredTerm>Alistipes shahii</nciodm:PreferredTerm>
                </EnumeratedItem>
                <EnumeratedItem CodedValue="ALPHACORONAVIRUS" nciodm:ExtCodeID="C119319">
                    <nciodm:CDISCSynonym>Coronavirus Group 1</nciodm:CDISCSynonym>
                    <nciodm:CDISCDefinition>Any viral organism that is not assigned to the species level but can be assigned to the Alphacoronavirus genus level.</nciodm:CDISCDefinition>
                    <nciodm:PreferredTerm>Alphacoronavirus</nciodm:PreferredTerm>
                </EnumeratedItem>
                <EnumeratedItem CodedValue="ALPHAVIRUS" nciodm:ExtCodeID="C112030">
                    <nciodm:CDISCSynonym>Arboviruses Group A</nciodm:CDISCSynonym>
                    <nciodm:CDISCDefinition>Any viral organism that can be assigned to the genus Alphavirus.</nciodm:CDISCDefinition>
                    <nciodm:PreferredTerm>Alphavirus</nciodm:PreferredTerm>
                </EnumeratedItem>
                <EnumeratedItem CodedValue="ALTERNARIA" nciodm:ExtCodeID="C119320">
                    <nciodm:CDISCDefinition>Any fungal organism that is not assigned to the species level but can be assigned to the Alternaria genus level.</nciodm:CDISCDefinition>
                    <nciodm:PreferredTerm>Alternaria</nciodm:PreferredTerm>
                </EnumeratedItem>
                <EnumeratedItem CodedValue="AMOEBA" nciodm:ExtCodeID="C119581">
                    <nciodm:CDISCSynonym>Ameba</nciodm:CDISCSynonym>
                    <nciodm:CDISCDefinition>Any unicellular, eukaryotic organism that is not assigned to the species level but can be assigned to the Amoeba genus level.</nciodm:CDISCDefinition>
                    <nciodm:PreferredTerm>Amoeba</nciodm:PreferredTerm>
                </EnumeratedItem>
                <EnumeratedItem CodedValue="ANAEROBIC BACTERIA" nciodm:ExtCodeID="C119321">
                    <nciodm:CDISCSynonym>Anaerobe</nciodm:CDISCSynonym>
                    <nciodm:CDISCDefinition>Any bacterial organism that does not require oxygen to grow or respirate and cannot be assigned to a specific genus or species.</nciodm:CDISCDefinition>
                    <nciodm:PreferredTerm>Anaerobic Bacteria</nciodm:PreferredTerm>
                </EnumeratedItem>
                <EnumeratedItem CodedValue="ANAEROBIC COCCUS" nciodm:ExtCodeID="C119322">
                    <nciodm:CDISCDefinition>Any spherical shaped bacterial organism that does not require oxygen to grow or respirate and cannot be assigned to a specific genus or species.</nciodm:CDISCDefinition>
                    <nciodm:PreferredTerm>Anaerobic Coccus</nciodm:PreferredTerm>
                </EnumeratedItem>
                <EnumeratedItem CodedValue="ANAEROBIC GRAM-NEGATIVE BACILLUS" nciodm:ExtCodeID="C86142">
                    <nciodm:CDISCSynonym>Anaerobic Gram-negative Rod</nciodm:CDISCSynonym>
                    <nciodm:CDISCDefinition>Any rod-shaped bacteria that does not require oxygen to grow or respirate and has a cell wall that contains low levels of peptidoglycan and stains pink with the Gram staining technique.</nciodm:CDISCDefinition>
                    <nciodm:PreferredTerm>Anaerobic Gram Negative Bacillus</nciodm:PreferredTerm>
                </EnumeratedItem>
                <EnumeratedItem CodedValue="ANAEROBIC GRAM-NEGATIVE BACTERIA" nciodm:ExtCodeID="C119323">
                    <nciodm:CDISCSynonym>Gram-negative Anaerobe</nciodm:CDISCSynonym>
                    <nciodm:CDISCDefinition>Any bacterial organism that does not require oxygen to grow or respirate, cannot be assigned to a specific genus or species, and has a cell wall that contains low levels of peptidoglycan and stains pink with the Gram staining technique.</nciodm:CDISCDefinition>
                    <nciodm:PreferredTerm>Anaerobic Gram-negative Bacteria</nciodm:PreferredTerm>
                </EnumeratedItem>
                <EnumeratedItem CodedValue="ANAEROBIC GRAM-NEGATIVE COCCOBACILLUS" nciodm:ExtCodeID="C125955">
                    <nciodm:CDISCDefinition>Any bacterial organism that does not require oxygen to grow or respirate, and is intermediate in morphology between a spherical-shaped coccus and a rod-shaped bacillus that contains low levels of peptidoglycan in its cell wall and stains pink with the Gram staining technique.</nciodm:CDISCDefinition>
                    <nciodm:PreferredTerm>Anaerobic Gram-Negative Coccobacillus</nciodm:PreferredTerm>
                </EnumeratedItem>
                <EnumeratedItem CodedValue="ANAEROBIC GRAM-NEGATIVE COCCUS" nciodm:ExtCodeID="C86143">
                    <nciodm:CDISCDefinition>Any spherical-shaped bacteria that does not require oxygen to grow or respirate and has a cell wall that contains low levels of peptidoglycan and stains pink with the Gram staining technique.</nciodm:CDISCDefinition>
                    <nciodm:PreferredTerm>Anaerobic Gram Negative Coccus</nciodm:PreferredTerm>
                </EnumeratedItem>
                <EnumeratedItem CodedValue="ANAEROBIC GRAM-POSITIVE BACILLUS" nciodm:ExtCodeID="C86144">
                    <nciodm:CDISCSynonym>Anaerobic Gram-positive Rod</nciodm:CDISCSynonym>
                    <nciodm:CDISCDefinition>Any rod-shaped bacteria that does not require oxygen to grow or respirate and has a peptidoglycan-rich cell wall that stains dark purple with the Gram staining technique.</nciodm:CDISCDefinition>
                    <nciodm:PreferredTerm>Anaerobic Gram Positive Bacillus</nciodm:PreferredTerm>
                </EnumeratedItem>
                <EnumeratedItem CodedValue="ANAEROBIC GRAM-POSITIVE BACTERIA" nciodm:ExtCodeID="C120704">
                    <nciodm:CDISCSynonym>Gram-positive Anaerobe</nciodm:CDISCSynonym>
                    <nciodm:CDISCDefinition>Any bacterial organism that does not require oxygen to grow or respirate, cannot be assigned to a specific genus or species, and has a cell wall that contains high levels of peptidoglycan and stains purple with the Gram staining technique.</nciodm:CDISCDefinition>
                    <nciodm:PreferredTerm>Anaerobic Gram Positive Bacteria</nciodm:PreferredTerm>
                </EnumeratedItem>
                <EnumeratedItem CodedValue="ANAEROBIC GRAM-POSITIVE COCCUS" nciodm:ExtCodeID="C86145">
                    <nciodm:CDISCDefinition>Any spherical-shaped bacteria that does not require oxygen to grow or respirate and has a peptidoglycan-rich cell wall that stains dark purple with the Gram staining technique.</nciodm:CDISCDefinition>
                    <nciodm:PreferredTerm>Anaerobic Gram Positive Coccus</nciodm:PreferredTerm>
                </EnumeratedItem>
                <EnumeratedItem CodedValue="ANAEROBIC STREPTOCOCCUS" nciodm:ExtCodeID="C86146">
                    <nciodm:CDISCDefinition>Any bacteria assigned to the genus Streptococcus that does not require oxygen to grow or respirate.</nciodm:CDISCDefinition>
                    <nciodm:PreferredTerm>Anaerobic Streptococcus</nciodm:PreferredTerm>
                </EnumeratedItem>
                <EnumeratedItem CodedValue="ANAEROCOCCUS" nciodm:ExtCodeID="C86872">
                    <nciodm:CDISCDefinition>Any bacteria that is not assigned to the species level but can be assigned to the Anaerococcus genus level.</nciodm:CDISCDefinition>
                    <nciodm:PreferredTerm>Anaerococcus</nciodm:PreferredTerm>
                </EnumeratedItem>
                <EnumeratedItem CodedValue="ANAEROCOCCUS HYDROGENALIS" nciodm:ExtCodeID="C86874">
                    <nciodm:CDISCSynonym>Peptostreptococcus hydrogenalis</nciodm:CDISCSynonym>
                    <nciodm:CDISCDefinition>Any bacterial organism that can be assigned to the species Anaerococcus hydrogenalis.</nciodm:CDISCDefinition>
                    <nciodm:PreferredTerm>Anaerococcus hydrogenalis</nciodm:PreferredTerm>
                </EnumeratedItem>
                <EnumeratedItem CodedValue="ANAEROCOCCUS PREVOTII" nciodm:ExtCodeID="C86875">
                    <nciodm:CDISCSynonym>Micrococcus prevotii</nciodm:CDISCSynonym>
                    <nciodm:CDISCSynonym>Peptococcus prevotii</nciodm:CDISCSynonym>
                    <nciodm:CDISCSynonym>Peptostreptococcus prevotii</nciodm:CDISCSynonym>
                    <nciodm:CDISCDefinition>Any bacterial organism that can be assigned to the species Anaerococcus prevotii.</nciodm:CDISCDefinition>
                    <nciodm:PreferredTerm>Anaerococcus prevotii</nciodm:PreferredTerm>
                </EnumeratedItem>
                <EnumeratedItem CodedValue="ANAEROCOCCUS TETRADIUS" nciodm:ExtCodeID="C86876">
                    <nciodm:CDISCSynonym>Gaffkya anaerobia</nciodm:CDISCSynonym>
                    <nciodm:CDISCSynonym>Peptostreptotoccus tetradius</nciodm:CDISCSynonym>
                    <nciodm:CDISCDefinition>Any bacterial organism that can be assigned to the species Anaerococcus tetradius.</nciodm:CDISCDefinition>
                    <nciodm:PreferredTerm>Anaerococcus tetradius</nciodm:PreferredTerm>
                </EnumeratedItem>
                <EnumeratedItem CodedValue="ANAEROCOCCUS VAGINALIS" nciodm:ExtCodeID="C86877">
                    <nciodm:CDISCDefinition>Any bacterial organism that can be assigned to the species Anaerococcus vaginalis.</nciodm:CDISCDefinition>
                    <nciodm:PreferredTerm>Anaerococcus vaginalis</nciodm:PreferredTerm>
                </EnumeratedItem>
                <EnumeratedItem CodedValue="ANCYLOSTOMA" nciodm:ExtCodeID="C120705">
                    <nciodm:CDISCDefinition>Any nematode parasite that is not assigned to the species level but can be assigned to the Ancylostoma genus level.</nciodm:CDISCDefinition>
                    <nciodm:PreferredTerm>Ancylostoma</nciodm:PreferredTerm>
                </EnumeratedItem>
                <EnumeratedItem CodedValue="ANCYLOSTOMA BRAZILIENSE" nciodm:ExtCodeID="C122239">
                    <nciodm:CDISCSynonym>Ancylostoma ceylanicum</nciodm:CDISCSynonym>
                    <nciodm:CDISCSynonym>Ancylostoma ceylonicum</nciodm:CDISCSynonym>
                    <nciodm:CDISCDefinition>Any nematode parasite that can be assigned to the species Ancylostoma braziliense.</nciodm:CDISCDefinition>
                    <nciodm:PreferredTerm>Ancylostoma braziliense</nciodm:PreferredTerm>
                </EnumeratedItem>
                <EnumeratedItem CodedValue="ANCYLOSTOMA CANINUM" nciodm:ExtCodeID="C122240">
                    <nciodm:CDISCSynonym>Dog Hookworm</nciodm:CDISCSynonym>
                    <nciodm:CDISCDefinition>Any nematode parasite that can be assigned to the species Ancylostoma caninum.</nciodm:CDISCDefinition>
                    <nciodm:PreferredTerm>Ancylostoma caninum</nciodm:PreferredTerm>
                </EnumeratedItem>
                <EnumeratedItem CodedValue="ANCYLOSTOMA DUODENALE" nciodm:ExtCodeID="C122241">
                    <nciodm:CDISCSynonym>European Hookworm</nciodm:CDISCSynonym>
                    <nciodm:CDISCSynonym>Old World Hookworm</nciodm:CDISCSynonym>
                    <nciodm:CDISCDefinition>Any nematode parasite that can be assigned to the species Ancylostoma duodenale.</nciodm:CDISCDefinition>
                    <nciodm:PreferredTerm>Ancylostoma duodenale</nciodm:PreferredTerm>
                </EnumeratedItem>
                <EnumeratedItem CodedValue="ANCYLOSTOMATOIDEA" nciodm:ExtCodeID="C123646">
                    <nciodm:CDISCSynonym>Hookworms</nciodm:CDISCSynonym>
                    <nciodm:CDISCDefinition>Any nematode parasite that can be assigned to the family of Ancylostomatoidea.</nciodm:CDISCDefinition>
                    <nciodm:PreferredTerm>Ancylostomatoidea</nciodm:PreferredTerm>
                </EnumeratedItem>
                <EnumeratedItem CodedValue="ANGIOSTRONGYLUS" nciodm:ExtCodeID="C122042">
                    <nciodm:CDISCDefinition>Any nematode parasite that is not assigned to the species level but can be assigned to the Angiostrongylus genus level.</nciodm:CDISCDefinition>
                    <nciodm:PreferredTerm>Angiostrongylus</nciodm:PreferredTerm>
                </EnumeratedItem>
                <EnumeratedItem CodedValue="ANGIOSTRONGYLUS CANTONENSIS" nciodm:ExtCodeID="C122242">
                    <nciodm:CDISCSynonym>Rat Lungworm</nciodm:CDISCSynonym>
                    <nciodm:CDISCDefinition>Any nematode parasite that can be assigned to the species Angiostrongylus cantonensis.</nciodm:CDISCDefinition>
                    <nciodm:PreferredTerm>Angiostrongylus cantonensis</nciodm:PreferredTerm>
                </EnumeratedItem>
                <EnumeratedItem CodedValue="ANISAKIS" nciodm:ExtCodeID="C122043">
                    <nciodm:CDISCDefinition>Any nematode parasite that is not assigned to the species level but can be assigned to the Anisakis genus level.</nciodm:CDISCDefinition>
                    <nciodm:PreferredTerm>Anisakis</nciodm:PreferredTerm>
                </EnumeratedItem>
                <EnumeratedItem CodedValue="ANISAKIS SIMPLEX" nciodm:ExtCodeID="C122243">
                    <nciodm:CDISCSynonym>Herring Worm</nciodm:CDISCSynonym>
                    <nciodm:CDISCDefinition>Any nematode parasite that can be assigned to the species Anisakis simplex.</nciodm:CDISCDefinition>
                    <nciodm:PreferredTerm>Anisakis simplex</nciodm:PreferredTerm>
                </EnumeratedItem>
                <EnumeratedItem CodedValue="APHTHOVIRUS" nciodm:ExtCodeID="C112229">
                    <nciodm:CDISCDefinition>Any viral organism that can be assigned to the genus Aphthovirus.</nciodm:CDISCDefinition>
                    <nciodm:PreferredTerm>Aphthovirus</nciodm:PreferredTerm>
                </EnumeratedItem>
                <EnumeratedItem CodedValue="APOPHYSOMYCES ELEGANS" nciodm:ExtCodeID="C127681">
                    <nciodm:CDISCDefinition>Any fungal organism that can be assigned to the species Apophysomyces elegans.</nciodm:CDISCDefinition>
                    <nciodm:PreferredTerm>Apophysomyces elegans</nciodm:PreferredTerm>
                </EnumeratedItem>
                <EnumeratedItem CodedValue="ARBOVIRUS" nciodm:ExtCodeID="C112230">
                    <nciodm:CDISCSynonym>Arthropod-borne Virus</nciodm:CDISCSynonym>
                    <nciodm:CDISCDefinition>A non-taxonomic grouping of viruses that are transmitted through an arthropod vector and replicate in a vertebrate host.</nciodm:CDISCDefinition>
                    <nciodm:PreferredTerm>Arbovirus</nciodm:PreferredTerm>
                </EnumeratedItem>
                <EnumeratedItem CodedValue="ARCANOBACTERIUM" nciodm:ExtCodeID="C86147">
                    <nciodm:CDISCDefinition>Any bacteria that is not assigned to the species level but can be assigned to the Arcanobacterium genus level.</nciodm:CDISCDefinition>
                    <nciodm:PreferredTerm>Arcanobacterium</nciodm:PreferredTerm>
                </EnumeratedItem>
                <EnumeratedItem CodedValue="ARCANOBACTERIUM BERNARDIAE" nciodm:ExtCodeID="C86148">
                    <nciodm:CDISCDefinition>Any bacterial organism that can be assigned to the species Arcanobacterium bernardiae.</nciodm:CDISCDefinition>
                    <nciodm:PreferredTerm>Arcanobacterium bernardiae</nciodm:PreferredTerm>
                </EnumeratedItem>
                <EnumeratedItem CodedValue="ARCANOBACTERIUM HAEMOLYTICUM" nciodm:ExtCodeID="C86149">
                    <nciodm:CDISCSynonym>Corynebacterium haemolyticum</nciodm:CDISCSynonym>
                    <nciodm:CDISCSynonym>Corynebacterium haemolyticus</nciodm:CDISCSynonym>
                    <nciodm:CDISCDefinition>Any bacterial organism that can be assigned to the species Arcanobacterium haemolyticum.</nciodm:CDISCDefinition>
                    <nciodm:PreferredTerm>Arcanobacterium haemolyticum</nciodm:PreferredTerm>
                </EnumeratedItem>
                <EnumeratedItem CodedValue="ARCOBACTER" nciodm:ExtCodeID="C86152">
                    <nciodm:CDISCDefinition>Any bacteria that is not assigned to the species level but can be assigned to the Arcobacter genus level.</nciodm:CDISCDefinition>
                    <nciodm:PreferredTerm>Arcobacter</nciodm:PreferredTerm>
                </EnumeratedItem>
                <EnumeratedItem CodedValue="ARCOBACTER BUTZLERI" nciodm:ExtCodeID="C86153">
                    <nciodm:CDISCSynonym>Campylobacter butzleri</nciodm:CDISCSynonym>
                    <nciodm:CDISCDefinition>Any bacterial organism that can be assigned to the species Arcobacter butzleri.</nciodm:CDISCDefinition>
                    <nciodm:PreferredTerm>Arcobacter butzleri</nciodm:PreferredTerm>
                </EnumeratedItem>
                <EnumeratedItem CodedValue="ARCOBACTER CRYAEROPHILUS" nciodm:ExtCodeID="C86154">
                    <nciodm:CDISCSynonym>Campylobacter cryaerophilus</nciodm:CDISCSynonym>
                    <nciodm:CDISCDefinition>Any bacterial organism that can be assigned to the species Arcobacter cryaerophilus.</nciodm:CDISCDefinition>
                    <nciodm:PreferredTerm>Arcobacter cryaerophilus</nciodm:PreferredTerm>
                </EnumeratedItem>
                <EnumeratedItem CodedValue="ARENAVIRUS" nciodm:ExtCodeID="C14306">
                    <nciodm:CDISCDefinition>Any viral organism that can be assigned to the genus Arenavirus.</nciodm:CDISCDefinition>
                    <nciodm:PreferredTerm>Arenavirus</nciodm:PreferredTerm>
                </EnumeratedItem>
                <EnumeratedItem CodedValue="ARTHRINIUM PHAEOSPERMUM" nciodm:ExtCodeID="C127682">
                    <nciodm:CDISCDefinition>Any fungal organism that can be assigned to the species Arthrinium phaeospermum.</nciodm:CDISCDefinition>
                    <nciodm:PreferredTerm>Arthrinium phaeospermum</nciodm:PreferredTerm>
                </EnumeratedItem>
                <EnumeratedItem CodedValue="ARTHROBACTER" nciodm:ExtCodeID="C86155">
                    <nciodm:CDISCDefinition>Any bacteria that is not assigned to the species level but can be assigned to the Arthrobacter genus level.</nciodm:CDISCDefinition>
                    <nciodm:PreferredTerm>Arthrobacter</nciodm:PreferredTerm>
                </EnumeratedItem>
                <EnumeratedItem CodedValue="ARTHROBACTER CUMMINSII" nciodm:ExtCodeID="C114248">
                    <nciodm:CDISCDefinition>Any bacterial organism that can be assigned to the species Arthrobacter cumminsii.</nciodm:CDISCDefinition>
                    <nciodm:PreferredTerm>Arthrobacter cumminsii</nciodm:PreferredTerm>
                </EnumeratedItem>
                <EnumeratedItem CodedValue="ARTHRODERMA FULVUM" nciodm:ExtCodeID="C127683">
                    <nciodm:CDISCSynonym>Microsporum fulvum</nciodm:CDISCSynonym>
                    <nciodm:CDISCDefinition>Any fungal organism that can be assigned to the species Arthroderma fulvum.</nciodm:CDISCDefinition>
                    <nciodm:PreferredTerm>Arthroderma fulvum</nciodm:PreferredTerm>
                </EnumeratedItem>
                <EnumeratedItem CodedValue="ARTHRODERMA OBTUSUM" nciodm:ExtCodeID="C127684">
                    <nciodm:CDISCSynonym>Microsporum nanum</nciodm:CDISCSynonym>
                    <nciodm:CDISCDefinition>Any fungal organism that can be assigned to the species Arthroderma obtusum.</nciodm:CDISCDefinition>
                    <nciodm:PreferredTerm>Arthroderma obtusum</nciodm:PreferredTerm>
                </EnumeratedItem>
                <EnumeratedItem CodedValue="ARTHRODERMA OTAE" nciodm:ExtCodeID="C127685">
                    <nciodm:CDISCSynonym>Microsporum canis</nciodm:CDISCSynonym>
                    <nciodm:CDISCSynonym>Nannizzia otae</nciodm:CDISCSynonym>
                    <nciodm:CDISCDefinition>Any fungal organism that can be assigned to the species Arthroderma otae.</nciodm:CDISCDefinition>
                    <nciodm:PreferredTerm>Arthroderma otae</nciodm:PreferredTerm>
                </EnumeratedItem>
                <EnumeratedItem CodedValue="ARTHRODERMA PERSICOLOR" nciodm:ExtCodeID="C127686">
                    <nciodm:CDISCSynonym>Trichophyton persicolor</nciodm:CDISCSynonym>
                    <nciodm:CDISCDefinition>Any fungal organism that can be assigned to the species Arthroderma persicolor.</nciodm:CDISCDefinition>
                    <nciodm:PreferredTerm>Arthroderma persicolor</nciodm:PreferredTerm>
                </EnumeratedItem>
                <EnumeratedItem CodedValue="ARTHRODERMA SIMII" nciodm:ExtCodeID="C127687">
                    <nciodm:CDISCSynonym>Trichophyton simii</nciodm:CDISCSynonym>
                    <nciodm:CDISCDefinition>Any fungal organism that can be assigned to the species Arthroderma simii.</nciodm:CDISCDefinition>
                    <nciodm:PreferredTerm>Arthroderma simii</nciodm:PreferredTerm>
                </EnumeratedItem>
                <EnumeratedItem CodedValue="ASCARIS LUMBRICOIDES" nciodm:ExtCodeID="C122177">
                    <nciodm:CDISCSynonym>Giant Roundworm</nciodm:CDISCSynonym>
                    <nciodm:CDISCDefinition>Any nematode parasite that can be assigned to the species Ascaris lumbricoides.</nciodm:CDISCDefinition>
                    <nciodm:PreferredTerm>Ascaris lumbricoides</nciodm:PreferredTerm>
                </EnumeratedItem>
                <EnumeratedItem CodedValue="ASPERGILLUS" nciodm:ExtCodeID="C77180">
                    <nciodm:CDISCDefinition>Any fungal organism that is not assigned to the species level but can be assigned to the Aspergillus genus level.</nciodm:CDISCDefinition>
                    <nciodm:PreferredTerm>Aspergillus</nciodm:PreferredTerm>
                </EnumeratedItem>
                <EnumeratedItem CodedValue="ASPERGILLUS FLAVUS" nciodm:ExtCodeID="C77181">
                    <nciodm:CDISCDefinition>Any fungal organism that can be assigned to the species Aspergillus flavus.</nciodm:CDISCDefinition>
                    <nciodm:PreferredTerm>Aspergillus flavus</nciodm:PreferredTerm>
                </EnumeratedItem>
                <EnumeratedItem CodedValue="ASPERGILLUS FLAVUS COMPLEX" nciodm:ExtCodeID="C122244">
                    <nciodm:CDISCDefinition>A non-taxonomic grouping of fungal species that are morphologically similar to the Aspergillus flavus species.</nciodm:CDISCDefinition>
                    <nciodm:PreferredTerm>Aspergillus Flavus Complex</nciodm:PreferredTerm>
                </EnumeratedItem>
                <EnumeratedItem CodedValue="ASPERGILLUS FUMIGATUS" nciodm:ExtCodeID="C77182">
                    <nciodm:CDISCSynonym>Aspergillus fumigates</nciodm:CDISCSynonym>
                    <nciodm:CDISCDefinition>Any fungal organism that can be assigned to the species Aspergillus fumigatus.</nciodm:CDISCDefinition>
                    <nciodm:PreferredTerm>Aspergillus fumigatus</nciodm:PreferredTerm>
                </EnumeratedItem>
                <EnumeratedItem CodedValue="ASPERGILLUS FUMIGATUS COMPLEX" nciodm:ExtCodeID="C122245">
                    <nciodm:CDISCDefinition>A non-taxonomic grouping of fungal species that are morphologically similar to the Aspergillus fumigatus species.</nciodm:CDISCDefinition>
                    <nciodm:PreferredTerm>Aspergillus Fumigatus Complex</nciodm:PreferredTerm>
                </EnumeratedItem>
                <EnumeratedItem CodedValue="ASPERGILLUS NIGER" nciodm:ExtCodeID="C121138">
                    <nciodm:CDISCDefinition>Any fungal organism that can be assigned to the species Aspergillus niger.</nciodm:CDISCDefinition>
                    <nciodm:PreferredTerm>Aspergillus niger</nciodm:PreferredTerm>
                </EnumeratedItem>
                <EnumeratedItem CodedValue="ASPERGILLUS TERREUS" nciodm:ExtCodeID="C87511">
                    <nciodm:CDISCSynonym>Aspergillus terrestrius</nciodm:CDISCSynonym>
                    <nciodm:CDISCDefinition>Any fungal organism that can be assigned to the species Aspergillus terreus.</nciodm:CDISCDefinition>
                    <nciodm:PreferredTerm>Aspergillus terreus</nciodm:PreferredTerm>
                </EnumeratedItem>
                <EnumeratedItem CodedValue="ASPERGILLUS VERSICOLOR" nciodm:ExtCodeID="C127688">
                    <nciodm:CDISCSynonym>Sterigmatocystis versicolor</nciodm:CDISCSynonym>
                    <nciodm:CDISCDefinition>Any fungal organism that can be assigned to the species Aspergillus versicolor.</nciodm:CDISCDefinition>
                    <nciodm:PreferredTerm>Aspergillus versicolor</nciodm:PreferredTerm>
                </EnumeratedItem>
                <EnumeratedItem CodedValue="ASTEROTREMELLA HUMICOLA" nciodm:ExtCodeID="C127689">
                    <nciodm:CDISCSynonym>Apiotrichum humicola</nciodm:CDISCSynonym>
                    <nciodm:CDISCSynonym>Azymoprocandida humicola</nciodm:CDISCSynonym>
                    <nciodm:CDISCSynonym>Candida humicola</nciodm:CDISCSynonym>
                    <nciodm:CDISCSynonym>Cryptococcus humicola</nciodm:CDISCSynonym>
                    <nciodm:CDISCSynonym>Mycotorula humicola</nciodm:CDISCSynonym>
                    <nciodm:CDISCSynonym>Torula humicola</nciodm:CDISCSynonym>
                    <nciodm:CDISCSynonym>Vanrija humicola</nciodm:CDISCSynonym>
                    <nciodm:CDISCSynonym>Vanrijia humicola</nciodm:CDISCSynonym>
                    <nciodm:CDISCDefinition>Any fungal organism that can be assigned to the species Asterotremella humicola.</nciodm:CDISCDefinition>
                    <nciodm:PreferredTerm>Asterotremella humicola</nciodm:PreferredTerm>
                </EnumeratedItem>
                <EnumeratedItem CodedValue="ASTROVIRUS" nciodm:ExtCodeID="C112231">
                    <nciodm:CDISCSynonym>Astroviridae</nciodm:CDISCSynonym>
                    <nciodm:CDISCDefinition>Any viral organism that can be assigned to the family Astroviridae.</nciodm:CDISCDefinition>
                    <nciodm:PreferredTerm>Astroviridae</nciodm:PreferredTerm>
                </EnumeratedItem>
                <EnumeratedItem CodedValue="ATOPOBIUM MINUTUM" nciodm:ExtCodeID="C86156">
                    <nciodm:CDISCSynonym>Lactobacillus minutis</nciodm:CDISCSynonym>
                    <nciodm:CDISCSynonym>Lactobacillus minutus</nciodm:CDISCSynonym>
                    <nciodm:CDISCDefinition>Any bacterial organism that can be assigned to the species Atopobium minutum.</nciodm:CDISCDefinition>
                    <nciodm:PreferredTerm>Atopobium minutum</nciodm:PreferredTerm>
                </EnumeratedItem>
                <EnumeratedItem CodedValue="ATOPOBIUM PARVULUM" nciodm:ExtCodeID="C86157">
                    <nciodm:CDISCSynonym>Streptococcus parvulus</nciodm:CDISCSynonym>
                    <nciodm:CDISCDefinition>Any bacterial organism that can be assigned to the species Atopobium parvulum.</nciodm:CDISCDefinition>
                    <nciodm:PreferredTerm>Atopobium parvulum</nciodm:PreferredTerm>
                </EnumeratedItem>
                <EnumeratedItem CodedValue="ATOPOBIUM RIMAE" nciodm:ExtCodeID="C114244">
                    <nciodm:CDISCSynonym>Lactobacillus rimae</nciodm:CDISCSynonym>
                    <nciodm:CDISCDefinition>Any bacterial organism that can be assigned to the species Atopobium rimae.</nciodm:CDISCDefinition>
                    <nciodm:PreferredTerm>Atopobium rimae</nciodm:PreferredTerm>
                </EnumeratedItem>
                <EnumeratedItem CodedValue="ATOPOBIUM VAGINAE" nciodm:ExtCodeID="C122178">
                    <nciodm:CDISCDefinition>Any bacterial organism that can be assigned to the species Atopobium vaginae.</nciodm:CDISCDefinition>
                    <nciodm:PreferredTerm>Atopobium vaginae</nciodm:PreferredTerm>
                </EnumeratedItem>
                <EnumeratedItem CodedValue="AUREOBASIDIUM PULLULANS" nciodm:ExtCodeID="C127690">
                    <nciodm:CDISCSynonym>Aureobasidium pullulans var. pullulans</nciodm:CDISCSynonym>
                    <nciodm:CDISCDefinition>Any fungal organism that can be assigned to the species Aureobasidium pullulans.</nciodm:CDISCDefinition>
                    <nciodm:PreferredTerm>Aureobasidium pullulans</nciodm:PreferredTerm>
                </EnumeratedItem>
                <EnumeratedItem CodedValue="AVIBACTERIUM PARAGALLINARUM" nciodm:ExtCodeID="C86158">
                    <nciodm:CDISCSynonym>Haemophilus paragallinarum</nciodm:CDISCSynonym>
                    <nciodm:CDISCDefinition>Any bacterial organism that can be assigned to the species Avibacterium paragallinarum.</nciodm:CDISCDefinition>
                    <nciodm:PreferredTerm>Avibacterium paragallinarum</nciodm:PreferredTerm>
                </EnumeratedItem>
                <EnumeratedItem CodedValue="BABESIA" nciodm:ExtCodeID="C122040">
                    <nciodm:CDISCDefinition>Any unicellular, eukaryotic organism that is not assigned to the species level but can be assigned to the Babesia genus level.</nciodm:CDISCDefinition>
                    <nciodm:PreferredTerm>Babesia</nciodm:PreferredTerm>
                </EnumeratedItem>
                <EnumeratedItem CodedValue="BABESIA DIVERGENS" nciodm:ExtCodeID="C122179">
                    <nciodm:CDISCDefinition>Any unicellular, eukaryotic organism that can be assigned to the species Babesia divergens.</nciodm:CDISCDefinition>
                    <nciodm:PreferredTerm>Babesia divergens</nciodm:PreferredTerm>
                </EnumeratedItem>
                <EnumeratedItem CodedValue="BABESIA MICROTI" nciodm:ExtCodeID="C122180">
                    <nciodm:CDISCDefinition>Any unicellular, eukaryotic organism that can be assigned to the species Babesia microti.</nciodm:CDISCDefinition>
                    <nciodm:PreferredTerm>Babesia microti</nciodm:PreferredTerm>
                </EnumeratedItem>
                <EnumeratedItem CodedValue="BACILLUS" nciodm:ExtCodeID="C76202">
                    <nciodm:CDISCDefinition>Any bacteria that is not assigned to the species level but can be assigned to the Bacillus genus level.</nciodm:CDISCDefinition>
                    <nciodm:PreferredTerm>Bacillus</nciodm:PreferredTerm>
                </EnumeratedItem>
                <EnumeratedItem CodedValue="BACILLUS ALVEI" nciodm:ExtCodeID="C86159">
                    <nciodm:CDISCDefinition>Any bacterial organism that can be assigned to the species Bacillus alvei.</nciodm:CDISCDefinition>
                    <nciodm:PreferredTerm>Bacillus alvei</nciodm:PreferredTerm>
                </EnumeratedItem>
                <EnumeratedItem CodedValue="BACILLUS ANTHRACIS" nciodm:ExtCodeID="C86160">
                    <nciodm:CDISCDefinition>Any bacterial organism that can be assigned to the species Bacillus anthracis.</nciodm:CDISCDefinition>
                    <nciodm:PreferredTerm>Bacillus anthracis</nciodm:PreferredTerm>
                </EnumeratedItem>
                <EnumeratedItem CodedValue="BACILLUS CEREUS" nciodm:ExtCodeID="C86161">
                    <nciodm:CDISCDefinition>Any bacterial organism that can be assigned to the species Bacillus cereus.</nciodm:CDISCDefinition>
                    <nciodm:PreferredTerm>Bacillus cereus</nciodm:PreferredTerm>
                </EnumeratedItem>
                <EnumeratedItem CodedValue="BACILLUS LENTUS" nciodm:ExtCodeID="C86162">
                    <nciodm:CDISCDefinition>Any bacterial organism that can be assigned to the species Bacillus lentus.</nciodm:CDISCDefinition>
                    <nciodm:PreferredTerm>Bacillus lentus</nciodm:PreferredTerm>
                </EnumeratedItem>
                <EnumeratedItem CodedValue="BACILLUS LICHENIFORMIS" nciodm:ExtCodeID="C86163">
                    <nciodm:CDISCDefinition>Any bacterial organism that can be assigned to the species Bacillus licheniformis.</nciodm:CDISCDefinition>
                    <nciodm:PreferredTerm>Bacillus licheniformis</nciodm:PreferredTerm>
                </EnumeratedItem>
                <EnumeratedItem CodedValue="BACILLUS MEGATERIUM" nciodm:ExtCodeID="C86164">
                    <nciodm:CDISCDefinition>Any bacterial organism that can be assigned to the species Bacillus megaterium.</nciodm:CDISCDefinition>
                    <nciodm:PreferredTerm>Bacillus megaterium</nciodm:PreferredTerm>
                </EnumeratedItem>
                <EnumeratedItem CodedValue="BACILLUS MYCOIDES" nciodm:ExtCodeID="C86165">
                    <nciodm:CDISCDefinition>Any bacterial organism that can be assigned to the species Bacillus mycoides.</nciodm:CDISCDefinition>
                    <nciodm:PreferredTerm>Bacillus mycoides</nciodm:PreferredTerm>
                </EnumeratedItem>
                <EnumeratedItem CodedValue="BACILLUS POLYMYXA" nciodm:ExtCodeID="C86166">
                    <nciodm:CDISCDefinition>Any bacterial organism that can be assigned to the species Bacillus polymyxa.</nciodm:CDISCDefinition>
                    <nciodm:PreferredTerm>Bacillus polymyxa</nciodm:PreferredTerm>
                </EnumeratedItem>
                <EnumeratedItem CodedValue="BACILLUS PUMILUS" nciodm:ExtCodeID="C122181">
                    <nciodm:CDISCSynonym>Bacillus aminoglucosidicus</nciodm:CDISCSynonym>
                    <nciodm:CDISCDefinition>Any bacterial organism that can be assigned to the species Bacillus pumilus.</nciodm:CDISCDefinition>
                    <nciodm:PreferredTerm>Bacillus pumilus</nciodm:PreferredTerm>
                </EnumeratedItem>
                <EnumeratedItem CodedValue="BACILLUS SUBTILIS" nciodm:ExtCodeID="C86167">
                    <nciodm:CDISCDefinition>Any bacterial organism that can be assigned to the species Bacillus subtilis.</nciodm:CDISCDefinition>
                    <nciodm:PreferredTerm>Bacillus subtilis</nciodm:PreferredTerm>
                </EnumeratedItem>
                <EnumeratedItem CodedValue="BACTERIA" nciodm:ExtCodeID="C14187">
                    <nciodm:CDISCSynonym>Bacterium</nciodm:CDISCSynonym>
                    <nciodm:CDISCSynonym>Eubacteria</nciodm:CDISCSynonym>
                    <nciodm:CDISCDefinition>Any organism assigned to the kingdom Bacteria.</nciodm:CDISCDefinition>
                    <nciodm:PreferredTerm>Bacteria</nciodm:PreferredTerm>
                </EnumeratedItem>
                <EnumeratedItem CodedValue="BACTEROIDES" nciodm:ExtCodeID="C76204">
                    <nciodm:CDISCDefinition>Any bacteria that is not assigned to the species level but can be assigned to the Bacteroides genus level.</nciodm:CDISCDefinition>
                    <nciodm:PreferredTerm>Bacteroides</nciodm:PreferredTerm>
                </EnumeratedItem>
                <EnumeratedItem CodedValue="BACTEROIDES CACCAE" nciodm:ExtCodeID="C86168">
                    <nciodm:CDISCDefinition>Any bacterial organism that can be assigned to the species Bacteroides caccae.</nciodm:CDISCDefinition>
                    <nciodm:PreferredTerm>Bacteroides caccae</nciodm:PreferredTerm>
                </EnumeratedItem>
                <EnumeratedItem CodedValue="BACTEROIDES CAPILLOSUS" nciodm:ExtCodeID="C86169">
                    <nciodm:CDISCDefinition>Any bacterial organism that can be assigned to the species Bacteroides capillosus.</nciodm:CDISCDefinition>
                    <nciodm:PreferredTerm>Bacteroides capillosus</nciodm:PreferredTerm>
                </EnumeratedItem>
                <EnumeratedItem CodedValue="BACTEROIDES CELLULOSOLVENS" nciodm:ExtCodeID="C86170">
                    <nciodm:CDISCDefinition>Any bacterial organism that can be assigned to the species Bacteroides cellulosolvens.</nciodm:CDISCDefinition>
                    <nciodm:PreferredTerm>Bacteroides cellulosolvens</nciodm:PreferredTerm>
                </EnumeratedItem>
                <EnumeratedItem CodedValue="BACTEROIDES DOREI" nciodm:ExtCodeID="C111133">
                    <nciodm:CDISCDefinition>Any bacterial organism that can be assigned to the species Bacteroides dorei.</nciodm:CDISCDefinition>
                    <nciodm:PreferredTerm>Bacteroides dorei</nciodm:PreferredTerm>
                </EnumeratedItem>
                <EnumeratedItem CodedValue="BACTEROIDES EGGERTHII" nciodm:ExtCodeID="C86171">
                    <nciodm:CDISCDefinition>Any bacterial organism that can be assigned to the species Bacteroides eggerthii.</nciodm:CDISCDefinition>
                    <nciodm:PreferredTerm>Bacteroides eggerthii</nciodm:PreferredTerm>
                </EnumeratedItem>
                <EnumeratedItem CodedValue="BACTEROIDES FAECIS" nciodm:ExtCodeID="C111134">
                    <nciodm:CDISCDefinition>Any bacterial organism that can be assigned to the species Bacteroides faecis.</nciodm:CDISCDefinition>
                    <nciodm:PreferredTerm>Bacteroides faecis</nciodm:PreferredTerm>
                </EnumeratedItem>
                <EnumeratedItem CodedValue="BACTEROIDES FRAGILIS" nciodm:ExtCodeID="C86172">
                    <nciodm:CDISCDefinition>Any bacterial organism that can be assigned to the species Bacteroides fragilis.</nciodm:CDISCDefinition>
                    <nciodm:PreferredTerm>Bacteroides fragilis</nciodm:PreferredTerm>
                </EnumeratedItem>
                <EnumeratedItem CodedValue="BACTEROIDES FRAGILIS GROUP" nciodm:ExtCodeID="C86173">
                    <nciodm:CDISCDefinition>A non-taxonomic grouping of bacteria that belongs to the fragilis group of the genus Bacteroides.</nciodm:CDISCDefinition>
                    <nciodm:PreferredTerm>Bacteroides fragilis Group</nciodm:PreferredTerm>
                </EnumeratedItem>
                <EnumeratedItem CodedValue="BACTEROIDES INTESTINALIS" nciodm:ExtCodeID="C119324">
                    <nciodm:CDISCDefinition>Any bacterial organism that can be assigned to the species Bacteroides intestinalis.</nciodm:CDISCDefinition>
                    <nciodm:PreferredTerm>Bacteroides intestinalis</nciodm:PreferredTerm>
                </EnumeratedItem>
                <EnumeratedItem CodedValue="BACTEROIDES NORDII" nciodm:ExtCodeID="C86174">
                    <nciodm:CDISCDefinition>Any bacterial organism that can be assigned to the species Bacteroides nordii.</nciodm:CDISCDefinition>
                    <nciodm:PreferredTerm>Bacteroides nordii</nciodm:PreferredTerm>
                </EnumeratedItem>
                <EnumeratedItem CodedValue="BACTEROIDES OVATUS" nciodm:ExtCodeID="C86175">
                    <nciodm:CDISCDefinition>Any bacterial organism that can be assigned to the species Bacteroides ovatus.</nciodm:CDISCDefinition>
                    <nciodm:PreferredTerm>Bacteroides ovatus</nciodm:PreferredTerm>
                </EnumeratedItem>
                <EnumeratedItem CodedValue="BACTEROIDES PYOGENES" nciodm:ExtCodeID="C86178">
                    <nciodm:CDISCSynonym>Bacteroides tectum</nciodm:CDISCSynonym>
                    <nciodm:CDISCSynonym>Bacteroides tectus</nciodm:CDISCSynonym>
                    <nciodm:CDISCDefinition>Any bacterial organism that can be assigned to the species Bacteroides pyogenes.</nciodm:CDISCDefinition>
                    <nciodm:PreferredTerm>Bacteroides tectus</nciodm:PreferredTerm>
                </EnumeratedItem>
                <EnumeratedItem CodedValue="BACTEROIDES SALYERSIAE" nciodm:ExtCodeID="C122182">
                    <nciodm:CDISCDefinition>Any bacterial organism that can be assigned to the species Bacteroides salyersiae.</nciodm:CDISCDefinition>
                    <nciodm:PreferredTerm>Bacteroides salyersiae</nciodm:PreferredTerm>
                </EnumeratedItem>
                <EnumeratedItem CodedValue="BACTEROIDES STERCORIS" nciodm:ExtCodeID="C86177">
                    <nciodm:CDISCSynonym>Bacteroides fragilis subsp. A</nciodm:CDISCSynonym>
                    <nciodm:CDISCDefinition>Any bacterial organism that can be assigned to the species Bacteroides stercoris.</nciodm:CDISCDefinition>
                    <nciodm:PreferredTerm>Bacteroides stercoris</nciodm:PreferredTerm>
                </EnumeratedItem>
                <EnumeratedItem CodedValue="BACTEROIDES THETAIOTAOMICRON" nciodm:ExtCodeID="C86179">
                    <nciodm:CDISCDefinition>Any bacterial organism that can be assigned to the species Bacteroides thetaiotamicron.</nciodm:CDISCDefinition>
                    <nciodm:PreferredTerm>Bacteroides thetaiotaomicron</nciodm:PreferredTerm>
                </EnumeratedItem>
                <EnumeratedItem CodedValue="BACTEROIDES UNIFORMIS" nciodm:ExtCodeID="C86180">
                    <nciodm:CDISCDefinition>Any bacterial organism that can be assigned to the species Bacteroides uniformis.</nciodm:CDISCDefinition>
                    <nciodm:PreferredTerm>Bacteroides uniformis</nciodm:PreferredTerm>
                </EnumeratedItem>
                <EnumeratedItem CodedValue="BACTEROIDES VULGATUS" nciodm:ExtCodeID="C86182">
                    <nciodm:CDISCDefinition>Any bacterial organism that can be assigned to the species Bacteroides vulgatus.</nciodm:CDISCDefinition>
                    <nciodm:PreferredTerm>Bacteroides vulgatus</nciodm:PreferredTerm>
                </EnumeratedItem>
                <EnumeratedItem CodedValue="BACTEROIDES XYLANISOLVENS" nciodm:ExtCodeID="C122183">
                    <nciodm:CDISCDefinition>Any bacterial organism that can be assigned to the species Bacteroides xylanisolvens.</nciodm:CDISCDefinition>
                    <nciodm:PreferredTerm>Bacteroides xylanisolvens</nciodm:PreferredTerm>
                </EnumeratedItem>
                <EnumeratedItem CodedValue="BALAMUTHIA" nciodm:ExtCodeID="C122041">
                    <nciodm:CDISCDefinition>Any amoebic organism that is not assigned to the species level but can be assigned to the Balamuthia genus level.</nciodm:CDISCDefinition>
                    <nciodm:PreferredTerm>Balamuthia</nciodm:PreferredTerm>
                </EnumeratedItem>
                <EnumeratedItem CodedValue="BALAMUTHIA MANDRILLARIS" nciodm:ExtCodeID="C122184">
                    <nciodm:CDISCDefinition>Any amoebic organism that can be assigned to the species Balamuthia mandrillaris.</nciodm:CDISCDefinition>
                    <nciodm:PreferredTerm>Balamuthia mandrillaris</nciodm:PreferredTerm>
                </EnumeratedItem>
                <EnumeratedItem CodedValue="BALANTIDIUM COLI" nciodm:ExtCodeID="C122246">
                    <nciodm:CDISCSynonym>Paramecium coli</nciodm:CDISCSynonym>
                    <nciodm:CDISCDefinition>Any unicellular, eukaryotic organism that can be assigned to the species Balantidium coli.</nciodm:CDISCDefinition>
                    <nciodm:PreferredTerm>Balantidium coli</nciodm:PreferredTerm>
                </EnumeratedItem>
                <EnumeratedItem CodedValue="BARMAH FOREST VIRUS" nciodm:ExtCodeID="C112232">
                    <nciodm:CDISCDefinition>Any viral organism that can be assigned to the species Barmah Forest virus.</nciodm:CDISCDefinition>
                    <nciodm:PreferredTerm>Barmah Forest Virus</nciodm:PreferredTerm>
                </EnumeratedItem>
                <EnumeratedItem CodedValue="BARTONELLA" nciodm:ExtCodeID="C86184">
                    <nciodm:CDISCDefinition>Any bacteria that is not assigned to the species level but can be assigned to the Bartonella genus level.</nciodm:CDISCDefinition>
                    <nciodm:PreferredTerm>Bartonella</nciodm:PreferredTerm>
                </EnumeratedItem>
                <EnumeratedItem CodedValue="BARTONELLA ELIZABETHAE" nciodm:ExtCodeID="C86185">
                    <nciodm:CDISCSynonym>Rochalimaea elizabethae</nciodm:CDISCSynonym>
                    <nciodm:CDISCDefinition>Any bacterial organism that can be assigned to the species Bartonella elizabethae.</nciodm:CDISCDefinition>
                    <nciodm:PreferredTerm>Bartonella elizabethae</nciodm:PreferredTerm>
                </EnumeratedItem>
                <EnumeratedItem CodedValue="BARTONELLA HENSELAE" nciodm:ExtCodeID="C86186">
                    <nciodm:CDISCSynonym>Rochalimaea henselae</nciodm:CDISCSynonym>
                    <nciodm:CDISCDefinition>Any bacterial organism that can be assigned to the species Bartonella henselae.</nciodm:CDISCDefinition>
                    <nciodm:PreferredTerm>Bartonella henselae</nciodm:PreferredTerm>
                </EnumeratedItem>
                <EnumeratedItem CodedValue="BARTONELLA QUINTANA" nciodm:ExtCodeID="C86187">
                    <nciodm:CDISCSynonym>Rochalimaea quintana</nciodm:CDISCSynonym>
                    <nciodm:CDISCDefinition>Any bacterial organism that can be assigned to the species Bartonella quintana.</nciodm:CDISCDefinition>
                    <nciodm:PreferredTerm>Bartonella quintana</nciodm:PreferredTerm>
                </EnumeratedItem>
                <EnumeratedItem CodedValue="BERGEYELLA" nciodm:ExtCodeID="C86188">
                    <nciodm:CDISCDefinition>Any bacteria that is not assigned to the species level but can be assigned to the Bergeyella genus level.</nciodm:CDISCDefinition>
                    <nciodm:PreferredTerm>Bergeyella</nciodm:PreferredTerm>
                </EnumeratedItem>
                <EnumeratedItem CodedValue="BERGEYELLA ZOOHELCUM" nciodm:ExtCodeID="C86189">
                    <nciodm:CDISCSynonym>Weeksella zoohelcum</nciodm:CDISCSynonym>
                    <nciodm:CDISCDefinition>Any bacterial organism that can be assigned to the species Bergeyella zoohelcum.</nciodm:CDISCDefinition>
                    <nciodm:PreferredTerm>Bergeyella zoohelcum</nciodm:PreferredTerm>
                </EnumeratedItem>
                <EnumeratedItem CodedValue="BETA STREPTOCOCCUS, GROUP C" nciodm:ExtCodeID="C86191">
                    <nciodm:CDISCDefinition>A non-taxonomic grouping of beta-hemolytic species within the Streptococcus genus that are assigned to the C group.</nciodm:CDISCDefinition>
                    <nciodm:PreferredTerm>Beta Streptococcus Group C</nciodm:PreferredTerm>
                </EnumeratedItem>
                <EnumeratedItem CodedValue="BETA STREPTOCOCCUS, GROUP F" nciodm:ExtCodeID="C86192">
                    <nciodm:CDISCDefinition>A non-taxonomic grouping of beta-hemolytic species within the Streptococcus genus that are assigned to the F group.</nciodm:CDISCDefinition>
                    <nciodm:PreferredTerm>Beta Streptococcus Group F</nciodm:PreferredTerm>
                </EnumeratedItem>
                <EnumeratedItem CodedValue="BETA STREPTOCOCCUS, GROUP G" nciodm:ExtCodeID="C86193">
                    <nciodm:CDISCDefinition>A non-taxonomic grouping of beta-hemolytic species within the Streptococcus genus that are assigned to the G group.</nciodm:CDISCDefinition>
                    <nciodm:PreferredTerm>Beta Streptococcus Group G</nciodm:PreferredTerm>
                </EnumeratedItem>
                <EnumeratedItem CodedValue="BETACORONAVIRUS" nciodm:ExtCodeID="C113207">
                    <nciodm:CDISCSynonym>Coronavirus Group 2</nciodm:CDISCSynonym>
                    <nciodm:CDISCDefinition>Any viral organism that can be assigned to the genus Betacoronavirus.</nciodm:CDISCDefinition>
                    <nciodm:PreferredTerm>Betacoronavirus</nciodm:PreferredTerm>
                </EnumeratedItem>
                <EnumeratedItem CodedValue="BIFIDOBACTERIUM" nciodm:ExtCodeID="C86194">
                    <nciodm:CDISCDefinition>Any bacteria that is not assigned to the species level but can be assigned to the Bifidobacterium genus level.</nciodm:CDISCDefinition>
                    <nciodm:PreferredTerm>Bifidobacterium</nciodm:PreferredTerm>
                </EnumeratedItem>
                <EnumeratedItem CodedValue="BIFIDOBACTERIUM ADOLESCENTIS" nciodm:ExtCodeID="C86195">
                    <nciodm:CDISCDefinition>Any bacterial organism that can be assigned to the species Bifidobacterium adolescentis.</nciodm:CDISCDefinition>
                    <nciodm:PreferredTerm>Bifidobacterium adolescentis</nciodm:PreferredTerm>
                </EnumeratedItem>
                <EnumeratedItem CodedValue="BIFIDOBACTERIUM ANGULATUM" nciodm:ExtCodeID="C86196">
                    <nciodm:CDISCDefinition>Any bacterial organism that can be assigned to the species Bifidobacterium angulatum.</nciodm:CDISCDefinition>
                    <nciodm:PreferredTerm>Bifidobacterium angulatum</nciodm:PreferredTerm>
                </EnumeratedItem>
                <EnumeratedItem CodedValue="BIFIDOBACTERIUM ANIMALIS" nciodm:ExtCodeID="C122247">
                    <nciodm:CDISCDefinition>Any bacterial organism that can be assigned to the species Bifidobacterium animalis.</nciodm:CDISCDefinition>
                    <nciodm:PreferredTerm>Bifidobacterium animalis</nciodm:PreferredTerm>
                </EnumeratedItem>
                <EnumeratedItem CodedValue="BIFIDOBACTERIUM BIFIDUM" nciodm:ExtCodeID="C86197">
                    <nciodm:CDISCDefinition>Any bacterial organism that can be assigned to the species Bifidobacterium bifidum.</nciodm:CDISCDefinition>
                    <nciodm:PreferredTerm>Bifidobacterium bifidum</nciodm:PreferredTerm>
                </EnumeratedItem>
                <EnumeratedItem CodedValue="BIFIDOBACTERIUM BREVE" nciodm:ExtCodeID="C122248">
                    <nciodm:CDISCSynonym>Bifidobacterium parvulorum</nciodm:CDISCSynonym>
                    <nciodm:CDISCDefinition>Any bacterial organism that can be assigned to the species Bifidobacterium breve.</nciodm:CDISCDefinition>
                    <nciodm:PreferredTerm>Bifidobacterium breve</nciodm:PreferredTerm>
                </EnumeratedItem>
                <EnumeratedItem CodedValue="BIFIDOBACTERIUM DENTIUM" nciodm:ExtCodeID="C86198">
                    <nciodm:CDISCSynonym>Bifidobacterium appendicitis</nciodm:CDISCSynonym>
                    <nciodm:CDISCDefinition>Any bacterial organism that can be assigned to the species Bifidobacterium dentium.</nciodm:CDISCDefinition>
                    <nciodm:PreferredTerm>Bifidobacterium dentium</nciodm:PreferredTerm>
                </EnumeratedItem>
                <EnumeratedItem CodedValue="BIFIDOBACTERIUM LONGUM" nciodm:ExtCodeID="C86199">
                    <nciodm:CDISCDefinition>Any bacterial organism that can be assigned to the species Bifidobacterium longum.</nciodm:CDISCDefinition>
                    <nciodm:PreferredTerm>Bifidobacterium longum</nciodm:PreferredTerm>
                </EnumeratedItem>
                <EnumeratedItem CodedValue="BIFIDOBACTERIUM PSEUDOCATENULATUM" nciodm:ExtCodeID="C122249">
                    <nciodm:CDISCDefinition>Any bacterial organism that can be assigned to the species Bifidobacterium pseudocatenulatum.</nciodm:CDISCDefinition>
                    <nciodm:PreferredTerm>Bifidobacterium pseudocatenulatum</nciodm:PreferredTerm>
                </EnumeratedItem>
                <EnumeratedItem CodedValue="BILOPHILA" nciodm:ExtCodeID="C86200">
                    <nciodm:CDISCDefinition>Any bacteria that is not assigned to the species level but can be assigned to the Bilophila genus level.</nciodm:CDISCDefinition>
                    <nciodm:PreferredTerm>Bilophila</nciodm:PreferredTerm>
                </EnumeratedItem>
                <EnumeratedItem CodedValue="BILOPHILA WADSWORTHIA" nciodm:ExtCodeID="C86201">
                    <nciodm:CDISCDefinition>Any bacterial organism that can be assigned to the species Bilophila wadsworthia.</nciodm:CDISCDefinition>
                    <nciodm:PreferredTerm>Bilophila wadsworthia</nciodm:PreferredTerm>
                </EnumeratedItem>
                <EnumeratedItem CodedValue="BIPOLARIS" nciodm:ExtCodeID="C122250">
                    <nciodm:CDISCDefinition>Any fungal organism that is not assigned to the species level but can be assigned to the Bipolaris genus level.</nciodm:CDISCDefinition>
                    <nciodm:PreferredTerm>Bipolaris</nciodm:PreferredTerm>
                </EnumeratedItem>
                <EnumeratedItem CodedValue="BK POLYOMAVIRUS" nciodm:ExtCodeID="C89820">
                    <nciodm:CDISCSynonym>BK Virus</nciodm:CDISCSynonym>
                    <nciodm:CDISCDefinition>Any viral organism that can be assigned to the species BK polyomavirus.</nciodm:CDISCDefinition>
                    <nciodm:PreferredTerm>BK Virus</nciodm:PreferredTerm>
                </EnumeratedItem>
                <EnumeratedItem CodedValue="BLASTOCYSTIS HOMINIS" nciodm:ExtCodeID="C122251">
                    <nciodm:CDISCDefinition>Any unicellular, eukaryotic organism that can be assigned to the species Blastocystis hominis.</nciodm:CDISCDefinition>
                    <nciodm:PreferredTerm>Blastocystis hominis</nciodm:PreferredTerm>
                </EnumeratedItem>
                <EnumeratedItem CodedValue="BOCAPARVOVIRUS" nciodm:ExtCodeID="C127691">
                    <nciodm:CDISCSynonym>Bocavirus</nciodm:CDISCSynonym>
                    <nciodm:CDISCDefinition>Any viral organism that can be assigned to the genus Bocaparvovirus.</nciodm:CDISCDefinition>
                    <nciodm:PreferredTerm>Bocaparvovirus</nciodm:PreferredTerm>
                </EnumeratedItem>
                <EnumeratedItem CodedValue="BORDETELLA" nciodm:ExtCodeID="C86202">
                    <nciodm:CDISCDefinition>Any bacteria that is not assigned to the species level but can be assigned to the Bordetella genus level.</nciodm:CDISCDefinition>
                    <nciodm:PreferredTerm>Bordetella</nciodm:PreferredTerm>
                </EnumeratedItem>
                <EnumeratedItem CodedValue="BORDETELLA AVIUM" nciodm:ExtCodeID="C86203">
                    <nciodm:CDISCDefinition>Any bacterial organism that can be assigned to the species Bordetella avium.</nciodm:CDISCDefinition>
                    <nciodm:PreferredTerm>Bordetella avium</nciodm:PreferredTerm>
                </EnumeratedItem>
                <EnumeratedItem CodedValue="BORDETELLA BRONCHISEPTICA" nciodm:ExtCodeID="C86204">
                    <nciodm:CDISCSynonym>Bordetella bronchicanis</nciodm:CDISCSynonym>
                    <nciodm:CDISCDefinition>Any bacterial organism that can be assigned to the species Bordetella bronchiseptica.</nciodm:CDISCDefinition>
                    <nciodm:PreferredTerm>Bordetella bronchiseptica</nciodm:PreferredTerm>
                </EnumeratedItem>
                <EnumeratedItem CodedValue="BORDETELLA HINZII" nciodm:ExtCodeID="C127692">
                    <nciodm:CDISCDefinition>Any bacterial organism that can be assigned to the species Bordetella hinzii.</nciodm:CDISCDefinition>
                    <nciodm:PreferredTerm>Bordetella hinzii</nciodm:PreferredTerm>
                </EnumeratedItem>
                <EnumeratedItem CodedValue="BORDETELLA PARAPERTUSSIS" nciodm:ExtCodeID="C86205">
                    <nciodm:CDISCDefinition>Any bacterial organism that can be assigned to the species Bordetella parapertussis.</nciodm:CDISCDefinition>
                    <nciodm:PreferredTerm>Bordetella parapertussis</nciodm:PreferredTerm>
                </EnumeratedItem>
                <EnumeratedItem CodedValue="BORDETELLA PERTUSSIS" nciodm:ExtCodeID="C76205">
                    <nciodm:CDISCDefinition>Any bacterial organism that can be assigned to the species Bordetella pertussis.</nciodm:CDISCDefinition>
                    <nciodm:PreferredTerm>Bordetella pertussis</nciodm:PreferredTerm>
                </EnumeratedItem>
                <EnumeratedItem CodedValue="BORDETELLA PETRII" nciodm:ExtCodeID="C127693">
                    <nciodm:CDISCDefinition>Any bacterial organism that can be assigned to the species Bordetella petrii.</nciodm:CDISCDefinition>
                    <nciodm:PreferredTerm>Bordetella petrii</nciodm:PreferredTerm>
                </EnumeratedItem>
                <EnumeratedItem CodedValue="BORRELIA" nciodm:ExtCodeID="C86206">
                    <nciodm:CDISCDefinition>Any bacteria that is not assigned to the species level but can be assigned to the Borrelia genus level.</nciodm:CDISCDefinition>
                    <nciodm:PreferredTerm>Borrelia</nciodm:PreferredTerm>
                </EnumeratedItem>
                <EnumeratedItem CodedValue="BORRELIA BURGDORFERI" nciodm:ExtCodeID="C76208">
                    <nciodm:CDISCDefinition>Any bacterial organism that can be assigned to the species Borrelia burgdorferi.</nciodm:CDISCDefinition>
                    <nciodm:PreferredTerm>Borrelia burgdorferi</nciodm:PreferredTerm>
                </EnumeratedItem>
                <EnumeratedItem CodedValue="BORRELIA MIYAMOTOI" nciodm:ExtCodeID="C122252">
                    <nciodm:CDISCDefinition>Any bacterial organism that can be assigned to the species Borrelia miyamotoi.</nciodm:CDISCDefinition>
                    <nciodm:PreferredTerm>Borrelia miyamotoi</nciodm:PreferredTerm>
                </EnumeratedItem>
                <EnumeratedItem CodedValue="BREVIBACILLUS" nciodm:ExtCodeID="C86207">
                    <nciodm:CDISCDefinition>Any bacteria that is not assigned to the species level but can be assigned to the Brevibacillus genus level.</nciodm:CDISCDefinition>
                    <nciodm:PreferredTerm>Brevibacillus</nciodm:PreferredTerm>
                </EnumeratedItem>
                <EnumeratedItem CodedValue="BREVIBACILLUS LATEROSPORUS" nciodm:ExtCodeID="C86208">
                    <nciodm:CDISCDefinition>Any bacterial organism that can be assigned to the species Brevibacillus laterosporus.</nciodm:CDISCDefinition>
                    <nciodm:PreferredTerm>Brevibacillus laterosporus</nciodm:PreferredTerm>
                </EnumeratedItem>
                <EnumeratedItem CodedValue="BREVIBACTERIUM" nciodm:ExtCodeID="C86209">
                    <nciodm:CDISCDefinition>Any bacteria that is not assigned to the species level but can be assigned to the Brevibacterium genus level.</nciodm:CDISCDefinition>
                    <nciodm:PreferredTerm>Brevibacterium</nciodm:PreferredTerm>
                </EnumeratedItem>
                <EnumeratedItem CodedValue="BREVIBACTERIUM CASEI" nciodm:ExtCodeID="C86210">
                    <nciodm:CDISCDefinition>Any bacterial organism that can be assigned to the species Brevibacterium casei.</nciodm:CDISCDefinition>
                    <nciodm:PreferredTerm>Brevibacterium casei</nciodm:PreferredTerm>
                </EnumeratedItem>
                <EnumeratedItem CodedValue="BREVIBACTERIUM EPIDERMIDIS" nciodm:ExtCodeID="C86211">
                    <nciodm:CDISCDefinition>Any bacterial organism that can be assigned to the species Brevibacterium epidermidis.</nciodm:CDISCDefinition>
                    <nciodm:PreferredTerm>Brevibacterium epidermidis</nciodm:PreferredTerm>
                </EnumeratedItem>
                <EnumeratedItem CodedValue="BREVUNDIMONAS" nciodm:ExtCodeID="C86212">
                    <nciodm:CDISCDefinition>Any bacteria that is not assigned to the species level but can be assigned to the Brevundimonas genus level.</nciodm:CDISCDefinition>
                    <nciodm:PreferredTerm>Brevundimonas</nciodm:PreferredTerm>
                </EnumeratedItem>
                <EnumeratedItem CodedValue="BREVUNDIMONAS DIMINUTA" nciodm:ExtCodeID="C86213">
                    <nciodm:CDISCSynonym>Pseudomonas diminuta</nciodm:CDISCSynonym>
                    <nciodm:CDISCDefinition>Any bacterial organism that can be assigned to the species Brevundimonas diminuta.</nciodm:CDISCDefinition>
                    <nciodm:PreferredTerm>Brevundimonas diminuta</nciodm:PreferredTerm>
                </EnumeratedItem>
                <EnumeratedItem CodedValue="BREVUNDIMONAS VESICULARIS" nciodm:ExtCodeID="C86214">
                    <nciodm:CDISCSynonym>Pseudomonas vesicularis</nciodm:CDISCSynonym>
                    <nciodm:CDISCDefinition>Any bacterial organism that can be assigned to the species Brevundimonas vesicularis.</nciodm:CDISCDefinition>
                    <nciodm:PreferredTerm>Brevundimonas vesicularis</nciodm:PreferredTerm>
                </EnumeratedItem>
                <EnumeratedItem CodedValue="BRUCELLA" nciodm:ExtCodeID="C86215">
                    <nciodm:CDISCDefinition>Any bacteria that is not assigned to the species level but can be assigned to the Brucella genus level.</nciodm:CDISCDefinition>
                    <nciodm:PreferredTerm>Brucella</nciodm:PreferredTerm>
                </EnumeratedItem>
                <EnumeratedItem CodedValue="BRUCELLA ABORTUS" nciodm:ExtCodeID="C86216">
                    <nciodm:CDISCDefinition>Any bacterial organism that can be assigned to the species Brucella abortus.</nciodm:CDISCDefinition>
                    <nciodm:PreferredTerm>Brucella abortus</nciodm:PreferredTerm>
                </EnumeratedItem>
                <EnumeratedItem CodedValue="BRUCELLA CANIS" nciodm:ExtCodeID="C86217">
                    <nciodm:CDISCDefinition>Any bacterial organism that can be assigned to the species Brucella canis.</nciodm:CDISCDefinition>
                    <nciodm:PreferredTerm>Brucella canis</nciodm:PreferredTerm>
                </EnumeratedItem>
                <EnumeratedItem CodedValue="BRUCELLA MELITENSIS" nciodm:ExtCodeID="C86218">
                    <nciodm:CDISCDefinition>Any bacterial organism that can be assigned to the species Brucella melitensis.</nciodm:CDISCDefinition>
                    <nciodm:PreferredTerm>Brucella melitensis</nciodm:PreferredTerm>
                </EnumeratedItem>
                <EnumeratedItem CodedValue="BRUCELLA SUIS" nciodm:ExtCodeID="C86219">
                    <nciodm:CDISCDefinition>Any bacterial organism that can be assigned to the species Brucella suis.</nciodm:CDISCDefinition>
                    <nciodm:PreferredTerm>Brucella suis</nciodm:PreferredTerm>
                </EnumeratedItem>
                <EnumeratedItem CodedValue="BUDVICIA" nciodm:ExtCodeID="C86220">
                    <nciodm:CDISCDefinition>Any bacteria that is not assigned to the species level but can be assigned to the Budvicia genus level.</nciodm:CDISCDefinition>
                    <nciodm:PreferredTerm>Budvicia</nciodm:PreferredTerm>
                </EnumeratedItem>
                <EnumeratedItem CodedValue="BUDVICIA AQUATICA" nciodm:ExtCodeID="C86221">
                    <nciodm:CDISCDefinition>Any bacterial organism that can be assigned to the species Budvicia aquatica.</nciodm:CDISCDefinition>
                    <nciodm:PreferredTerm>Budvicia aquatica</nciodm:PreferredTerm>
                </EnumeratedItem>
                <EnumeratedItem CodedValue="BURKHOLDERIA" nciodm:ExtCodeID="C86222">
                    <nciodm:CDISCDefinition>Any bacteria that is not assigned to the species level but can be assigned to the Burkholderia genus level.</nciodm:CDISCDefinition>
                    <nciodm:PreferredTerm>Burkholderia</nciodm:PreferredTerm>
                </EnumeratedItem>
                <EnumeratedItem CodedValue="BURKHOLDERIA CENOCEPACIA" nciodm:ExtCodeID="C86223">
                    <nciodm:CDISCDefinition>Any bacterial organism that can be assigned to the species Burkholderia cenocepacia.</nciodm:CDISCDefinition>
                    <nciodm:PreferredTerm>Burkholderia cenocepacia</nciodm:PreferredTerm>
                </EnumeratedItem>
                <EnumeratedItem CodedValue="BURKHOLDERIA CEPACIA" nciodm:ExtCodeID="C76376">
                    <nciodm:CDISCSynonym>Pseudomonas cepacia</nciodm:CDISCSynonym>
                    <nciodm:CDISCDefinition>Any bacterial organism that can be assigned to the species Burkholderia cepacia.</nciodm:CDISCDefinition>
                    <nciodm:PreferredTerm>Burkholderia cepacia</nciodm:PreferredTerm>
                </EnumeratedItem>
                <EnumeratedItem CodedValue="BURKHOLDERIA CEPACIA COMPLEX" nciodm:ExtCodeID="C86224">
                    <nciodm:CDISCDefinition>A non-taxonomic grouping of bacterial species that are phenotypically or genetically similar to the Burkholderia cepacia species.</nciodm:CDISCDefinition>
                    <nciodm:PreferredTerm>Burkholderia cepacia Complex</nciodm:PreferredTerm>
                </EnumeratedItem>
                <EnumeratedItem CodedValue="BURKHOLDERIA GLADIOLI" nciodm:ExtCodeID="C86225">
                    <nciodm:CDISCSynonym>Pseudomonas gladioli</nciodm:CDISCSynonym>
                    <nciodm:CDISCDefinition>Any bacterial organism that can be assigned to the species Burkholderia gladioli.</nciodm:CDISCDefinition>
                    <nciodm:PreferredTerm>Burkholderia gladioli</nciodm:PreferredTerm>
                </EnumeratedItem>
                <EnumeratedItem CodedValue="BURKHOLDERIA MALLEI" nciodm:ExtCodeID="C86226">
                    <nciodm:CDISCSynonym>Actinobacillus mallei</nciodm:CDISCSynonym>
                    <nciodm:CDISCDefinition>Any bacterial organism that can be assigned to the species Burkholderia mallei.</nciodm:CDISCDefinition>
                    <nciodm:PreferredTerm>Burkholderia mallei</nciodm:PreferredTerm>
                </EnumeratedItem>
                <EnumeratedItem CodedValue="BURKHOLDERIA PSEUDOMALLEI" nciodm:ExtCodeID="C86227">
                    <nciodm:CDISCSynonym>Burkholderia pseudomalle</nciodm:CDISCSynonym>
                    <nciodm:CDISCSynonym>Pseudomonas pseudomallei</nciodm:CDISCSynonym>
                    <nciodm:CDISCDefinition>Any bacterial organism that can be assigned to the species Burkholderia pseudomallei.</nciodm:CDISCDefinition>
                    <nciodm:PreferredTerm>Burkholderia pseudomallei</nciodm:PreferredTerm>
                </EnumeratedItem>
                <EnumeratedItem CodedValue="BUTTIAUXELLA" nciodm:ExtCodeID="C86228">
                    <nciodm:CDISCDefinition>Any bacteria that is not assigned to the species level but can be assigned to the Buttiauxella genus level.</nciodm:CDISCDefinition>
                    <nciodm:PreferredTerm>Buttiauxella</nciodm:PreferredTerm>
                </EnumeratedItem>
                <EnumeratedItem CodedValue="BUTTIAUXELLA AGRESTIS" nciodm:ExtCodeID="C86229">
                    <nciodm:CDISCDefinition>Any bacterial organism that can be assigned to the species Buttiauxella agrestis.</nciodm:CDISCDefinition>
                    <nciodm:PreferredTerm>Buttiauxella agrestis</nciodm:PreferredTerm>
                </EnumeratedItem>
                <EnumeratedItem CodedValue="BUTTIAUXELLA FERRAGUTIAE" nciodm:ExtCodeID="C122253">
                    <nciodm:CDISCSynonym>CDC Enteric Group 63</nciodm:CDISCSynonym>
                    <nciodm:CDISCDefinition>Any bacterial organism that can be assigned to the species Buttiauxella ferragutiae.</nciodm:CDISCDefinition>
                    <nciodm:PreferredTerm>Buttiauxella ferragutiae</nciodm:PreferredTerm>
                </EnumeratedItem>
                <EnumeratedItem CodedValue="BUTTIAUXELLA GAVINIAE" nciodm:ExtCodeID="C122254">
                    <nciodm:CDISCSynonym>CDC Enteric Group 64</nciodm:CDISCSynonym>
                    <nciodm:CDISCDefinition>Any bacterial organism that can be assigned to the species Buttiauxella gaviniae.</nciodm:CDISCDefinition>
                    <nciodm:PreferredTerm>Buttiauxella gaviniae</nciodm:PreferredTerm>
                </EnumeratedItem>
                <EnumeratedItem CodedValue="BUTTIAUXELLA NOACKIAE" nciodm:ExtCodeID="C122255">
                    <nciodm:CDISCSynonym>CDC Enteric Group 59</nciodm:CDISCSynonym>
                    <nciodm:CDISCDefinition>Any bacterial organism that can be assigned to the species Buttiauxella noackiae.</nciodm:CDISCDefinition>
                    <nciodm:PreferredTerm>Buttiauxella noackiae</nciodm:PreferredTerm>
                </EnumeratedItem>
                <EnumeratedItem CodedValue="BYSSOCHLAMYS SPECTABILIS" nciodm:ExtCodeID="C127694">
                    <nciodm:CDISCSynonym>Paecilomyces spectabilis</nciodm:CDISCSynonym>
                    <nciodm:CDISCSynonym>Paecilomyces variotii</nciodm:CDISCSynonym>
                    <nciodm:CDISCSynonym>Talaromyces spectabilis</nciodm:CDISCSynonym>
                    <nciodm:CDISCDefinition>Any fungal organism that can be assigned to the species Byssochlamys spectabilis.</nciodm:CDISCDefinition>
                    <nciodm:PreferredTerm>Byssochlamys spectabilis</nciodm:PreferredTerm>
                </EnumeratedItem>
                <EnumeratedItem CodedValue="CALICIVIRUS" nciodm:ExtCodeID="C14304">
                    <nciodm:CDISCSynonym>Caliciviridae</nciodm:CDISCSynonym>
                    <nciodm:CDISCDefinition>Any viral organism that can be assigned to the family Caliciviridae.</nciodm:CDISCDefinition>
                    <nciodm:PreferredTerm>Calicivirus</nciodm:PreferredTerm>
                </EnumeratedItem>
                <EnumeratedItem CodedValue="CALODIUM HEPATICUM" nciodm:ExtCodeID="C122256">
                    <nciodm:CDISCSynonym>Capillaria hepatica</nciodm:CDISCSynonym>
                    <nciodm:CDISCDefinition>Any nematode parasite that can be assigned to the species Calodium hepaticum.</nciodm:CDISCDefinition>
                    <nciodm:PreferredTerm>Calodium hepaticum</nciodm:PreferredTerm>
                </EnumeratedItem>
                <EnumeratedItem CodedValue="CAMPYLOBACTER" nciodm:ExtCodeID="C76211">
                    <nciodm:CDISCDefinition>Any bacteria that is not assigned to the species level but can be assigned to the Campylobacter genus level.</nciodm:CDISCDefinition>
                    <nciodm:PreferredTerm>Campylobacter</nciodm:PreferredTerm>
                </EnumeratedItem>
                <EnumeratedItem CodedValue="CAMPYLOBACTER COLI" nciodm:ExtCodeID="C86230">
                    <nciodm:CDISCDefinition>Any bacterial organism that can be assigned to the species Campylobacter coli.</nciodm:CDISCDefinition>
                    <nciodm:PreferredTerm>Campylobacter coli</nciodm:PreferredTerm>
                </EnumeratedItem>
                <EnumeratedItem CodedValue="CAMPYLOBACTER CONCISUS" nciodm:ExtCodeID="C86231">
                    <nciodm:CDISCDefinition>Any bacterial organism that can be assigned to the species Campylobacter concisus.</nciodm:CDISCDefinition>
                    <nciodm:PreferredTerm>Campylobacter concisus</nciodm:PreferredTerm>
                </EnumeratedItem>
                <EnumeratedItem CodedValue="CAMPYLOBACTER CURVUS" nciodm:ExtCodeID="C86232">
                    <nciodm:CDISCSynonym>Wolinella curva</nciodm:CDISCSynonym>
                    <nciodm:CDISCDefinition>Any bacterial organism that can be assigned to the species Campylobacter curvus.</nciodm:CDISCDefinition>
                    <nciodm:PreferredTerm>Campylobacter curvus</nciodm:PreferredTerm>
                </EnumeratedItem>
                <EnumeratedItem CodedValue="CAMPYLOBACTER FETUS" nciodm:ExtCodeID="C86233">
                    <nciodm:CDISCSynonym>Vibrio fetus</nciodm:CDISCSynonym>
                    <nciodm:CDISCDefinition>Any bacterial organism that can be assigned to the species Campylobacter fetus.</nciodm:CDISCDefinition>
                    <nciodm:PreferredTerm>Campylobacter fetus</nciodm:PreferredTerm>
                </EnumeratedItem>
                <EnumeratedItem CodedValue="CAMPYLOBACTER GRACILIS" nciodm:ExtCodeID="C86234">
                    <nciodm:CDISCSynonym>Bacteroides gracilis</nciodm:CDISCSynonym>
                    <nciodm:CDISCDefinition>Any bacterial organism that can be assigned to the species Campylobacter gracilis.</nciodm:CDISCDefinition>
                    <nciodm:PreferredTerm>Campylobacter gracilis</nciodm:PreferredTerm>
                </EnumeratedItem>
                <EnumeratedItem CodedValue="CAMPYLOBACTER JEJUNI" nciodm:ExtCodeID="C86235">
                    <nciodm:CDISCDefinition>Any bacterial organism that can be assigned to the species Campylobacter jejuni.</nciodm:CDISCDefinition>
                    <nciodm:PreferredTerm>Campylobacter jejuni</nciodm:PreferredTerm>
                </EnumeratedItem>
                <EnumeratedItem CodedValue="CAMPYLOBACTER LARI" nciodm:ExtCodeID="C86236">
                    <nciodm:CDISCSynonym>Campylobacter laridis</nciodm:CDISCSynonym>
                    <nciodm:CDISCDefinition>Any bacterial organism that can be assigned to the species Campylobacter lari.</nciodm:CDISCDefinition>
                    <nciodm:PreferredTerm>Campylobacter lari</nciodm:PreferredTerm>
                </EnumeratedItem>
                <EnumeratedItem CodedValue="CAMPYLOBACTER RECTUS" nciodm:ExtCodeID="C86237">
                    <nciodm:CDISCSynonym>Wolinella recta</nciodm:CDISCSynonym>
                    <nciodm:CDISCDefinition>Any bacterial organism that can be assigned to the species Campylobacter rectus.</nciodm:CDISCDefinition>
                    <nciodm:PreferredTerm>Campylobacter rectus</nciodm:PreferredTerm>
                </EnumeratedItem>
                <EnumeratedItem CodedValue="CAMPYLOBACTER UPSALIENSIS" nciodm:ExtCodeID="C86238">
                    <nciodm:CDISCDefinition>Any bacterial organism that can be assigned to the species Campylobacter upsaliensis.</nciodm:CDISCDefinition>
                    <nciodm:PreferredTerm>Campylobacter upsaliensis</nciodm:PreferredTerm>
                </EnumeratedItem>
                <EnumeratedItem CodedValue="CAMPYLOBACTER UREOLYTICUS" nciodm:ExtCodeID="C86181">
                    <nciodm:CDISCSynonym>Bacteroides corrodens</nciodm:CDISCSynonym>
                    <nciodm:CDISCSynonym>Bacteroides ureolyticus</nciodm:CDISCSynonym>
                    <nciodm:CDISCDefinition>Any bacterial organism that can be assigned to the species Campylobacter ureolyticus.</nciodm:CDISCDefinition>
                    <nciodm:PreferredTerm>Bacteroides ureolyticus</nciodm:PreferredTerm>
                </EnumeratedItem>
                <EnumeratedItem CodedValue="CANDIDA" nciodm:ExtCodeID="C77163">
                    <nciodm:CDISCDefinition>Any fungal organism that is not assigned to the species level but can be assigned to the Candida genus level.</nciodm:CDISCDefinition>
                    <nciodm:PreferredTerm>Candida</nciodm:PreferredTerm>
                </EnumeratedItem>
                <EnumeratedItem CodedValue="CANDIDA ALBICANS" nciodm:ExtCodeID="C77170">
                    <nciodm:CDISCSynonym>Candida stellatoidea</nciodm:CDISCSynonym>
                    <nciodm:CDISCDefinition>Any fungal organism that can be assigned to the species Candida albicans.</nciodm:CDISCDefinition>
                    <nciodm:PreferredTerm>Candida albicans</nciodm:PreferredTerm>
                </EnumeratedItem>
                <EnumeratedItem CodedValue="CANDIDA BOIDINII" nciodm:ExtCodeID="C127695">
                    <nciodm:CDISCSynonym>Hansenula alcolica</nciodm:CDISCSynonym>
                    <nciodm:CDISCDefinition>Any fungal organism that can be assigned to the species Candida boidinii.</nciodm:CDISCDefinition>
                    <nciodm:PreferredTerm>Candida boidinii</nciodm:PreferredTerm>
                </EnumeratedItem>
                <EnumeratedItem CodedValue="CANDIDA DUBLINIENSIS" nciodm:ExtCodeID="C114255">
                    <nciodm:CDISCDefinition>Any fungal organism that can be assigned to the species Candida dubliniensis.</nciodm:CDISCDefinition>
                    <nciodm:PreferredTerm>Candida dubliniensis</nciodm:PreferredTerm>
                </EnumeratedItem>
                <EnumeratedItem CodedValue="CANDIDA FAMATA" nciodm:ExtCodeID="C127696">
                    <nciodm:CDISCDefinition>Any fungal organism that can be assigned to the species Candida famata.</nciodm:CDISCDefinition>
                    <nciodm:PreferredTerm>Candida famata</nciodm:PreferredTerm>
                </EnumeratedItem>
                <EnumeratedItem CodedValue="CANDIDA GLABRATA" nciodm:ExtCodeID="C77179">
                    <nciodm:CDISCSynonym>Torulopsis glabrata</nciodm:CDISCSynonym>
                    <nciodm:CDISCDefinition>Any fungal organism that can be assigned to the species Candida glabrata.</nciodm:CDISCDefinition>
                    <nciodm:PreferredTerm>Candida glabrata</nciodm:PreferredTerm>
                </EnumeratedItem>
                <EnumeratedItem CodedValue="CANDIDA INCONSPICUA" nciodm:ExtCodeID="C127697">
                    <nciodm:CDISCSynonym>Torulopsis inconspicua</nciodm:CDISCSynonym>
                    <nciodm:CDISCDefinition>Any fungal organism that can be assigned to the species Candida inconspicua.</nciodm:CDISCDefinition>
                    <nciodm:PreferredTerm>Candida inconspicua</nciodm:PreferredTerm>
                </EnumeratedItem>
                <EnumeratedItem CodedValue="CANDIDA INTERMEDIA" nciodm:ExtCodeID="C120706">
                    <nciodm:CDISCSynonym>Blastodendrion intermedium</nciodm:CDISCSynonym>
                    <nciodm:CDISCSynonym>Blastodendrion intermedius</nciodm:CDISCSynonym>
                    <nciodm:CDISCSynonym>Cryptococcus intermedius</nciodm:CDISCSynonym>
                    <nciodm:CDISCSynonym>Kluyveromyces cellobiovorus</nciodm:CDISCSynonym>
                    <nciodm:CDISCSynonym>Mycotorula intermedia</nciodm:CDISCSynonym>
                    <nciodm:CDISCDefinition>Any fungal organism that can be assigned to the species Candida intermedia.</nciodm:CDISCDefinition>
                    <nciodm:PreferredTerm>Candida intermedia</nciodm:PreferredTerm>
                </EnumeratedItem>
                <EnumeratedItem CodedValue="CANDIDA ORTHOPSILOSIS" nciodm:ExtCodeID="C114260">
                    <nciodm:CDISCSynonym>Candida parapsilosis group II</nciodm:CDISCSynonym>
                    <nciodm:CDISCDefinition>Any fungal organism that can be assigned to the species Candida orthopsilosis.</nciodm:CDISCDefinition>
                    <nciodm:PreferredTerm>Candida orthopsilosis</nciodm:PreferredTerm>
                </EnumeratedItem>
                <EnumeratedItem CodedValue="CANDIDA PARAPSILOSIS" nciodm:ExtCodeID="C77176">
                    <nciodm:CDISCDefinition>Any fungal organism that can be assigned to the species Candida parapsilosis.</nciodm:CDISCDefinition>
                    <nciodm:PreferredTerm>Candida parapsilosis</nciodm:PreferredTerm>
                </EnumeratedItem>
                <EnumeratedItem CodedValue="CANDIDA PARARUGOSA" nciodm:ExtCodeID="C114258">
                    <nciodm:CDISCDefinition>Any fungal organism that can be assigned to the species Candida pararugosa.</nciodm:CDISCDefinition>
                    <nciodm:PreferredTerm>Candida pararugosa</nciodm:PreferredTerm>
                </EnumeratedItem>
                <EnumeratedItem CodedValue="CANDIDA RUGOSA" nciodm:ExtCodeID="C114254">
                    <nciodm:CDISCDefinition>Any fungal organism that can be assigned to the species Candida rugosa.</nciodm:CDISCDefinition>
                    <nciodm:PreferredTerm>Candida rugosa</nciodm:PreferredTerm>
                </EnumeratedItem>
                <EnumeratedItem CodedValue="CANDIDA SAKE" nciodm:ExtCodeID="C127698">
                    <nciodm:CDISCDefinition>Any fungal organism that can be assigned to the species Candida sake.</nciodm:CDISCDefinition>
                    <nciodm:PreferredTerm>Candida sake</nciodm:PreferredTerm>
                </EnumeratedItem>
                <EnumeratedItem CodedValue="CANDIDA TROPICALIS" nciodm:ExtCodeID="C77177">
                    <nciodm:CDISCDefinition>Any fungal organism that can be assigned to the species Candida tropicalis.</nciodm:CDISCDefinition>
                    <nciodm:PreferredTerm>Candida tropicalis</nciodm:PreferredTerm>
                </EnumeratedItem>
                <EnumeratedItem CodedValue="CANDIDA ZEYLANOIDES" nciodm:ExtCodeID="C114261">
                    <nciodm:CDISCSynonym>Candida krissii</nciodm:CDISCSynonym>
                    <nciodm:CDISCDefinition>Any fungal organism that can be assigned to the species Candida zeylanoides.</nciodm:CDISCDefinition>
                    <nciodm:PreferredTerm>Candida zeylanoides</nciodm:PreferredTerm>
                </EnumeratedItem>
                <EnumeratedItem CodedValue="CAPILLARIA" nciodm:ExtCodeID="C122044">
                    <nciodm:CDISCSynonym>Hairworm</nciodm:CDISCSynonym>
                    <nciodm:CDISCDefinition>Any nematode parasite that is not assigned to the species level but can be assigned to the Capillaria genus level.</nciodm:CDISCDefinition>
                    <nciodm:PreferredTerm>Capillaria</nciodm:PreferredTerm>
                </EnumeratedItem>
                <EnumeratedItem CodedValue="CAPILLARIA PHILIPPINENSIS" nciodm:ExtCodeID="C122257">
                    <nciodm:CDISCSynonym>Paracapillaria philippinensis</nciodm:CDISCSynonym>
                    <nciodm:CDISCDefinition>Any nematode parasite that can be assigned to the species Capillaria philippinensis.</nciodm:CDISCDefinition>
                    <nciodm:PreferredTerm>Capillaria philippinensis</nciodm:PreferredTerm>
                </EnumeratedItem>
                <EnumeratedItem CodedValue="CAPNOCYTOPHAGA" nciodm:ExtCodeID="C76269">
                    <nciodm:CDISCDefinition>Any bacteria that is not assigned to the species level but can be assigned to the Capnocytophaga genus level.</nciodm:CDISCDefinition>
                    <nciodm:PreferredTerm>Capnocytophaga</nciodm:PreferredTerm>
                </EnumeratedItem>
                <EnumeratedItem CodedValue="CAPNOCYTOPHAGA CANIMORSUS" nciodm:ExtCodeID="C86239">
                    <nciodm:CDISCDefinition>Any bacterial organism that can be assigned to the species Capnocytophaga canimorsus.</nciodm:CDISCDefinition>
                    <nciodm:PreferredTerm>Capnocytophaga canimorsus</nciodm:PreferredTerm>
                </EnumeratedItem>
                <EnumeratedItem CodedValue="CAPNOCYTOPHAGA GINGIVALIS" nciodm:ExtCodeID="C86240">
                    <nciodm:CDISCDefinition>Any bacterial organism that can be assigned to the species Capnocytophaga gingivalis.</nciodm:CDISCDefinition>
                    <nciodm:PreferredTerm>Capnocytophaga gingivalis</nciodm:PreferredTerm>
                </EnumeratedItem>
                <EnumeratedItem CodedValue="CAPNOCYTOPHAGA OCHRACEA" nciodm:ExtCodeID="C86241">
                    <nciodm:CDISCDefinition>Any bacterial organism that can be assigned to the species Capnocytophaga ochracea.</nciodm:CDISCDefinition>
                    <nciodm:PreferredTerm>Capnocytophaga ochracea</nciodm:PreferredTerm>
                </EnumeratedItem>
                <EnumeratedItem CodedValue="CAPNOCYTOPHAGA SPUTIGENA" nciodm:ExtCodeID="C86242">
                    <nciodm:CDISCDefinition>Any bacterial organism that can be assigned to the species Capnocytophaga sputigena.</nciodm:CDISCDefinition>
                    <nciodm:PreferredTerm>Capnocytophaga sputigena</nciodm:PreferredTerm>
                </EnumeratedItem>
                <EnumeratedItem CodedValue="CARDIOBACTERIUM" nciodm:ExtCodeID="C86243">
                    <nciodm:CDISCDefinition>Any bacteria that is not assigned to the species level but can be assigned to the Cardiobacterium genus level.</nciodm:CDISCDefinition>
                    <nciodm:PreferredTerm>Cardiobacterium</nciodm:PreferredTerm>
                </EnumeratedItem>
                <EnumeratedItem CodedValue="CARDIOBACTERIUM HOMINIS" nciodm:ExtCodeID="C86244">
                    <nciodm:CDISCDefinition>Any bacterial organism that can be assigned to the species Cardiobacterium hominis.</nciodm:CDISCDefinition>
                    <nciodm:PreferredTerm>Cardiobacterium hominis</nciodm:PreferredTerm>
                </EnumeratedItem>
                <EnumeratedItem CodedValue="CEDECEA" nciodm:ExtCodeID="C86245">
                    <nciodm:CDISCDefinition>Any bacteria that is not assigned to the species level but can be assigned to the Cedecea genus level.</nciodm:CDISCDefinition>
                    <nciodm:PreferredTerm>Cedecea</nciodm:PreferredTerm>
                </EnumeratedItem>
                <EnumeratedItem CodedValue="CEDECEA DAVISAE" nciodm:ExtCodeID="C86246">
                    <nciodm:CDISCDefinition>Any bacterial organism that can be assigned to the species Cedecea davisae.</nciodm:CDISCDefinition>
                    <nciodm:PreferredTerm>Cedecea davisae</nciodm:PreferredTerm>
                </EnumeratedItem>
                <EnumeratedItem CodedValue="CEDECEA LAPAGEI" nciodm:ExtCodeID="C86247">
                    <nciodm:CDISCDefinition>Any bacterial organism that can be assigned to the species Cedecea lapagei.</nciodm:CDISCDefinition>
                    <nciodm:PreferredTerm>Cedecea lapagei</nciodm:PreferredTerm>
                </EnumeratedItem>
                <EnumeratedItem CodedValue="CEDECEA NETERI" nciodm:ExtCodeID="C86248">
                    <nciodm:CDISCSynonym>Cedecea Species 4</nciodm:CDISCSynonym>
                    <nciodm:CDISCDefinition>Any bacterial organism that can be assigned to the species Cedecea neteri.</nciodm:CDISCDefinition>
                    <nciodm:PreferredTerm>Cedecea neteri</nciodm:PreferredTerm>
                </EnumeratedItem>
                <EnumeratedItem CodedValue="CELLULOMONAS" nciodm:ExtCodeID="C86249">
                    <nciodm:CDISCDefinition>Any bacteria that is not assigned to the species level but can be assigned to the Cellulomonas genus level.</nciodm:CDISCDefinition>
                    <nciodm:PreferredTerm>Cellulomonas</nciodm:PreferredTerm>
                </EnumeratedItem>
                <EnumeratedItem CodedValue="CELLULOMONAS HOMINIS" nciodm:ExtCodeID="C86250">
                    <nciodm:CDISCDefinition>Any bacterial organism that can be assigned to the species Cellulomonas hominis.</nciodm:CDISCDefinition>
                    <nciodm:PreferredTerm>Cellulomonas hominis</nciodm:PreferredTerm>
                </EnumeratedItem>
                <EnumeratedItem CodedValue="CELLULOSIMICROBIUM" nciodm:ExtCodeID="C86251">
                    <nciodm:CDISCDefinition>Any bacteria that is not assigned to the species level but can be assigned to the Cellulosimicrobium genus level.</nciodm:CDISCDefinition>
                    <nciodm:PreferredTerm>Cellulosimicrobium</nciodm:PreferredTerm>
                </EnumeratedItem>
                <EnumeratedItem CodedValue="CELLULOSIMICROBIUM CELLULANS" nciodm:ExtCodeID="C86252">
                    <nciodm:CDISCSynonym>Arthrobacter luteus</nciodm:CDISCSynonym>
                    <nciodm:CDISCSynonym>Cellulomonas cellulans</nciodm:CDISCSynonym>
                    <nciodm:CDISCSynonym>Nocardia cellulans</nciodm:CDISCSynonym>
                    <nciodm:CDISCSynonym>Oerskovia xanthineolytica</nciodm:CDISCSynonym>
                    <nciodm:CDISCDefinition>Any bacterial organism that can be assigned to the species Cellulosimicrobium cellulans.</nciodm:CDISCDefinition>
                    <nciodm:PreferredTerm>Cellulosimicrobium cellulans</nciodm:PreferredTerm>
                </EnumeratedItem>
                <EnumeratedItem CodedValue="CESTODA" nciodm:ExtCodeID="C122045">
                    <nciodm:CDISCSynonym>Tapeworm</nciodm:CDISCSynonym>
                    <nciodm:CDISCDefinition>Any parasitic flatworm that is not assigned to the species level but can be assigned to the Cestoda class level.</nciodm:CDISCDefinition>
                    <nciodm:PreferredTerm>Cestoda</nciodm:PreferredTerm>
                </EnumeratedItem>
                <EnumeratedItem CodedValue="CHAETOMIUM" nciodm:ExtCodeID="C122258">
                    <nciodm:CDISCDefinition>Any fungal organism that is not assigned to the species level but can be assigned to the Chaetomium genus level.</nciodm:CDISCDefinition>
                    <nciodm:PreferredTerm>Chaetomium</nciodm:PreferredTerm>
                </EnumeratedItem>
                <EnumeratedItem CodedValue="CHILOMASTIX MESNILI" nciodm:ExtCodeID="C122259">
                    <nciodm:CDISCDefinition>Any unicellular, eukaryotic organism that can be assigned to the species Chilomastix mesnili.</nciodm:CDISCDefinition>
                    <nciodm:PreferredTerm>Chilomastix mesnili</nciodm:PreferredTerm>
                </EnumeratedItem>
                <EnumeratedItem CodedValue="CHLAMYDIA" nciodm:ExtCodeID="C76271">
                    <nciodm:CDISCDefinition>Any bacteria that is not assigned to the species level but can be assigned to the Chlamydia genus level.</nciodm:CDISCDefinition>
                    <nciodm:PreferredTerm>Chlamydia</nciodm:PreferredTerm>
                </EnumeratedItem>
                <EnumeratedItem CodedValue="CHLAMYDIA TRACHOMATIS" nciodm:ExtCodeID="C86253">
                    <nciodm:CDISCDefinition>Any bacterial organism that can be assigned to the species Chlamydia trachomatis.</nciodm:CDISCDefinition>
                    <nciodm:PreferredTerm>Chlamydia trachomatis</nciodm:PreferredTerm>
                </EnumeratedItem>
                <EnumeratedItem CodedValue="CHLAMYDOPHILA" nciodm:ExtCodeID="C86254">
                    <nciodm:CDISCDefinition>Any bacteria that is not assigned to the species level but can be assigned to the Chlamydophila genus level.</nciodm:CDISCDefinition>
                    <nciodm:PreferredTerm>Chlamydophila</nciodm:PreferredTerm>
                </EnumeratedItem>
                <EnumeratedItem CodedValue="CHLAMYDOPHILA PNEUMONIAE" nciodm:ExtCodeID="C76272">
                    <nciodm:CDISCSynonym>Chlamydia pneumoniae</nciodm:CDISCSynonym>
                    <nciodm:CDISCDefinition>Any bacterial organism that can be assigned to the species Chlamydophila pneumoniae.</nciodm:CDISCDefinition>
                    <nciodm:PreferredTerm>Chlamydophila pneumoniae</nciodm:PreferredTerm>
                </EnumeratedItem>
                <EnumeratedItem CodedValue="CHLAMYDOPHILA PSITTACI" nciodm:ExtCodeID="C86255">
                    <nciodm:CDISCSynonym>Chlamydia psittaci</nciodm:CDISCSynonym>
                    <nciodm:CDISCDefinition>Any bacterial organism that can be assigned to the species Chlamydophila psittaci.</nciodm:CDISCDefinition>
                    <nciodm:PreferredTerm>Chlamydophila psittaci</nciodm:PreferredTerm>
                </EnumeratedItem>
                <EnumeratedItem CodedValue="CHROMOBACTERIUM" nciodm:ExtCodeID="C86256">
                    <nciodm:CDISCDefinition>Any bacteria that is not assigned to the species level but can be assigned to the Chromobacterium genus level.</nciodm:CDISCDefinition>
                    <nciodm:PreferredTerm>Chromobacterium</nciodm:PreferredTerm>
                </EnumeratedItem>
                <EnumeratedItem CodedValue="CHROMOBACTERIUM VIOLACEUM" nciodm:ExtCodeID="C86257">
                    <nciodm:CDISCDefinition>Any bacterial organism that can be assigned to the species Chromobacterium violaceum.</nciodm:CDISCDefinition>
                    <nciodm:PreferredTerm>Chromobacterium violaceum</nciodm:PreferredTerm>
                </EnumeratedItem>
                <EnumeratedItem CodedValue="CHRYSEOBACTERIUM" nciodm:ExtCodeID="C86258">
                    <nciodm:CDISCDefinition>Any bacteria that is not assigned to the species level but can be assigned to the Chryseobacterium genus level.</nciodm:CDISCDefinition>
                    <nciodm:PreferredTerm>Chryseobacterium</nciodm:PreferredTerm>
                </EnumeratedItem>
                <EnumeratedItem CodedValue="CHRYSEOBACTERIUM GLEUM" nciodm:ExtCodeID="C86259">
                    <nciodm:CDISCSynonym>Flavobacterium gleum</nciodm:CDISCSynonym>
                    <nciodm:CDISCDefinition>Any bacterial organism that can be assigned to the species Chryseobacterium gleum.</nciodm:CDISCDefinition>
                    <nciodm:PreferredTerm>Chryseobacterium gleum</nciodm:PreferredTerm>
                </EnumeratedItem>
                <EnumeratedItem CodedValue="CHRYSEOBACTERIUM INDOLOGENES" nciodm:ExtCodeID="C86260">
                    <nciodm:CDISCSynonym>Flavobacterium indologenes</nciodm:CDISCSynonym>
                    <nciodm:CDISCDefinition>Any bacterial organism that can be assigned to the species Chryseobacterium indologenes.</nciodm:CDISCDefinition>
                    <nciodm:PreferredTerm>Chryseobacterium indologenes</nciodm:PreferredTerm>
                </EnumeratedItem>
                <EnumeratedItem CodedValue="CHRYSEOMONAS" nciodm:ExtCodeID="C86261">
                    <nciodm:CDISCDefinition>Any bacteria that is not assigned to the species level but can be assigned to the Chryseomonas genus level.</nciodm:CDISCDefinition>
                    <nciodm:PreferredTerm>Chryseomonas</nciodm:PreferredTerm>
                </EnumeratedItem>
                <EnumeratedItem CodedValue="CHRYSOSPORIUM" nciodm:ExtCodeID="C122260">
                    <nciodm:CDISCDefinition>Any fungal organism that is not assigned to the species level but can be assigned to the Chrysosporium genus level.</nciodm:CDISCDefinition>
                    <nciodm:PreferredTerm>Chrysosporium</nciodm:PreferredTerm>
                </EnumeratedItem>
                <EnumeratedItem CodedValue="CITROBACTER" nciodm:ExtCodeID="C76273">
                    <nciodm:CDISCDefinition>Any bacteria that is not assigned to the species level but can be assigned to the Citrobacter genus level.</nciodm:CDISCDefinition>
                    <nciodm:PreferredTerm>Citrobacter</nciodm:PreferredTerm>
                </EnumeratedItem>
                <EnumeratedItem CodedValue="CITROBACTER AMALONATICUS" nciodm:ExtCodeID="C86262">
                    <nciodm:CDISCSynonym>Levinea amalonatica</nciodm:CDISCSynonym>
                    <nciodm:CDISCDefinition>Any bacterial organism that can be assigned to the species Citrobacter amalonaticus.</nciodm:CDISCDefinition>
                    <nciodm:PreferredTerm>Citrobacter amalonaticus</nciodm:PreferredTerm>
                </EnumeratedItem>
                <EnumeratedItem CodedValue="CITROBACTER BRAAKII" nciodm:ExtCodeID="C86263">
                    <nciodm:CDISCDefinition>Any bacterial organism that can be assigned to the species Citrobacter braakii.</nciodm:CDISCDefinition>
                    <nciodm:PreferredTerm>Citrobacter braakii</nciodm:PreferredTerm>
                </EnumeratedItem>
                <EnumeratedItem CodedValue="CITROBACTER FARMERI" nciodm:ExtCodeID="C86264">
                    <nciodm:CDISCSynonym>Citrobacter amalonaticus Biogroup 1</nciodm:CDISCSynonym>
                    <nciodm:CDISCDefinition>Any bacterial organism that can be assigned to the species Citrobacter farmeri.</nciodm:CDISCDefinition>
                    <nciodm:PreferredTerm>Citrobacter farmeri</nciodm:PreferredTerm>
                </EnumeratedItem>
                <EnumeratedItem CodedValue="CITROBACTER FREUNDII" nciodm:ExtCodeID="C86265">
                    <nciodm:CDISCSynonym>Colobactrum freundii</nciodm:CDISCSynonym>
                    <nciodm:CDISCDefinition>Any bacterial organism that can be assigned to the species Citrobacter freundii.</nciodm:CDISCDefinition>
                    <nciodm:PreferredTerm>Citrobacter freundii</nciodm:PreferredTerm>
                </EnumeratedItem>
                <EnumeratedItem CodedValue="CITROBACTER FREUNDII COMPLEX" nciodm:ExtCodeID="C86266">
                    <nciodm:CDISCDefinition>A non-taxonomic grouping of bacterial species that are phenotypically or genetically similar to the Citrobacter freundii species.</nciodm:CDISCDefinition>
                    <nciodm:PreferredTerm>Citrobacter freundii Complex</nciodm:PreferredTerm>
                </EnumeratedItem>
                <EnumeratedItem CodedValue="CITROBACTER KOSERI" nciodm:ExtCodeID="C86267">
                    <nciodm:CDISCSynonym>Citrobacter diversus</nciodm:CDISCSynonym>
                    <nciodm:CDISCDefinition>Any bacterial organism that can be assigned to the species Citrobacter koseri.</nciodm:CDISCDefinition>
                    <nciodm:PreferredTerm>Citrobacter koseri</nciodm:PreferredTerm>
                </EnumeratedItem>
                <EnumeratedItem CodedValue="CITROBACTER YOUNGAE" nciodm:ExtCodeID="C86268">
                    <nciodm:CDISCDefinition>Any bacterial organism that can be assigned to the species Citrobacter youngae.</nciodm:CDISCDefinition>
                    <nciodm:PreferredTerm>Citrobacter youngae</nciodm:PreferredTerm>
                </EnumeratedItem>
                <EnumeratedItem CodedValue="CLADOSPORIUM" nciodm:ExtCodeID="C122261">
                    <nciodm:CDISCDefinition>Any fungal organism that is not assigned to the species level but can be assigned to the Cladosporium genus level.</nciodm:CDISCDefinition>
                    <nciodm:PreferredTerm>Cladosporium</nciodm:PreferredTerm>
                </EnumeratedItem>
                <EnumeratedItem CodedValue="CLAVISPORA LUSITANIAE" nciodm:ExtCodeID="C77174">
                    <nciodm:CDISCSynonym>Candida lusitaniae</nciodm:CDISCSynonym>
                    <nciodm:CDISCDefinition>Any fungal organism that can be assigned to the species Clavispora lusitaniae.</nciodm:CDISCDefinition>
                    <nciodm:PreferredTerm>Clavispora lusitaniae</nciodm:PreferredTerm>
                </EnumeratedItem>
                <EnumeratedItem CodedValue="CLONORCHIS SINENSIS" nciodm:ExtCodeID="C122262">
                    <nciodm:CDISCSynonym>Oriental liver fluke</nciodm:CDISCSynonym>
                    <nciodm:CDISCDefinition>Any trematode parasite that can be assigned to the species Clonorchis sinensis.</nciodm:CDISCDefinition>
                    <nciodm:PreferredTerm>Clonorchis sinensis</nciodm:PreferredTerm>
                </EnumeratedItem>
                <EnumeratedItem CodedValue="CLOSTRIDIUM" nciodm:ExtCodeID="C76275">
                    <nciodm:CDISCDefinition>Any bacteria that is not assigned to the species level but can be assigned to the Clostridium genus level.</nciodm:CDISCDefinition>
                    <nciodm:PreferredTerm>Clostridium</nciodm:PreferredTerm>
                </EnumeratedItem>
                <EnumeratedItem CodedValue="CLOSTRIDIUM ACETOBUTYLICUM" nciodm:ExtCodeID="C86269">
                    <nciodm:CDISCDefinition>Any bacterial organism that can be assigned to the species Clostridium acetobutylicum.</nciodm:CDISCDefinition>
                    <nciodm:PreferredTerm>Clostridium acetobutylicum</nciodm:PreferredTerm>
                </EnumeratedItem>
                <EnumeratedItem CodedValue="CLOSTRIDIUM ALDENENSE" nciodm:ExtCodeID="C122263">
                    <nciodm:CDISCDefinition>Any bacterial organism that can be assigned to the species Clostridium aldenense.</nciodm:CDISCDefinition>
                    <nciodm:PreferredTerm>Clostridium aldenense</nciodm:PreferredTerm>
                </EnumeratedItem>
                <EnumeratedItem CodedValue="CLOSTRIDIUM BARATII" nciodm:ExtCodeID="C86270">
                    <nciodm:CDISCSynonym>Clostridium barati</nciodm:CDISCSynonym>
                    <nciodm:CDISCDefinition>Any bacterial organism that can be assigned to the species Clostridium baratii.</nciodm:CDISCDefinition>
                    <nciodm:PreferredTerm>Clostridium baratii</nciodm:PreferredTerm>
                </EnumeratedItem>
                <EnumeratedItem CodedValue="CLOSTRIDIUM BEIJERINCKII" nciodm:ExtCodeID="C86271">
                    <nciodm:CDISCDefinition>Any bacterial organism that can be assigned to the species Clostridium beijerinckii.</nciodm:CDISCDefinition>
                    <nciodm:PreferredTerm>Clostridium beijerinckii</nciodm:PreferredTerm>
                </EnumeratedItem>
                <EnumeratedItem CodedValue="CLOSTRIDIUM BIFERMENTANS" nciodm:ExtCodeID="C86272">
                    <nciodm:CDISCDefinition>Any bacterial organism that can be assigned to the species Clostridium bifermentans.</nciodm:CDISCDefinition>
                    <nciodm:PreferredTerm>Clostridium bifermentans</nciodm:PreferredTerm>
                </EnumeratedItem>
                <EnumeratedItem CodedValue="CLOSTRIDIUM BOLTEAE" nciodm:ExtCodeID="C114250">
                    <nciodm:CDISCDefinition>Any bacterial organism that can be assigned to the species Clostridium bolteae.</nciodm:CDISCDefinition>
                    <nciodm:PreferredTerm>Clostridium bolteae</nciodm:PreferredTerm>
                </EnumeratedItem>
                <EnumeratedItem CodedValue="CLOSTRIDIUM BUTYRICUM" nciodm:ExtCodeID="C86273">
                    <nciodm:CDISCSynonym>Clostridium pseudotetanicum</nciodm:CDISCSynonym>
                    <nciodm:CDISCDefinition>Any bacterial organism that can be assigned to the species Clostridium butyricum.</nciodm:CDISCDefinition>
                    <nciodm:PreferredTerm>Clostridium butyricum</nciodm:PreferredTerm>
                </EnumeratedItem>
                <EnumeratedItem CodedValue="CLOSTRIDIUM CADAVERIS" nciodm:ExtCodeID="C86274">
                    <nciodm:CDISCDefinition>Any bacterial organism that can be assigned to the species Clostridium cadaveris.</nciodm:CDISCDefinition>
                    <nciodm:PreferredTerm>Clostridium cadaveris</nciodm:PreferredTerm>
                </EnumeratedItem>
                <EnumeratedItem CodedValue="CLOSTRIDIUM CELATUM" nciodm:ExtCodeID="C86275">
                    <nciodm:CDISCDefinition>Any bacterial organism that can be assigned to the species Clostridium celatum.</nciodm:CDISCDefinition>
                    <nciodm:PreferredTerm>Clostridium celatum</nciodm:PreferredTerm>
                </EnumeratedItem>
                <EnumeratedItem CodedValue="CLOSTRIDIUM CITRONIAE" nciodm:ExtCodeID="C122264">
                    <nciodm:CDISCDefinition>Any bacterial organism that can be assigned to the species Clostridium citroniae.</nciodm:CDISCDefinition>
                    <nciodm:PreferredTerm>Clostridium citroniae</nciodm:PreferredTerm>
                </EnumeratedItem>
                <EnumeratedItem CodedValue="CLOSTRIDIUM CLOSTRIDIOFORME" nciodm:ExtCodeID="C86276">
                    <nciodm:CDISCSynonym>Clostridium clostridiiforme</nciodm:CDISCSynonym>
                    <nciodm:CDISCDefinition>Any bacterial organism that can be assigned to the species Clostridium clostridioforme.</nciodm:CDISCDefinition>
                    <nciodm:PreferredTerm>Clostridium clostridioforme</nciodm:PreferredTerm>
                </EnumeratedItem>
                <EnumeratedItem CodedValue="CLOSTRIDIUM COCHLEARIUM" nciodm:ExtCodeID="C86277">
                    <nciodm:CDISCDefinition>Any bacterial organism that can be assigned to the species Clostridium cochlearium.</nciodm:CDISCDefinition>
                    <nciodm:PreferredTerm>Clostridium cochlearium</nciodm:PreferredTerm>
                </EnumeratedItem>
                <EnumeratedItem CodedValue="CLOSTRIDIUM COCLEATUM" nciodm:ExtCodeID="C86278">
                    <nciodm:CDISCDefinition>Any bacterial organism that can be assigned to the species Clostridium cocleatum.</nciodm:CDISCDefinition>
                    <nciodm:PreferredTerm>Clostridium cocleatum</nciodm:PreferredTerm>
                </EnumeratedItem>
                <EnumeratedItem CodedValue="CLOSTRIDIUM DIFFICILE" nciodm:ExtCodeID="C76276">
                    <nciodm:CDISCSynonym>Clostridium difficilis</nciodm:CDISCSynonym>
                    <nciodm:CDISCDefinition>Any bacterial organism that can be assigned to the species Clostridium difficile.</nciodm:CDISCDefinition>
                    <nciodm:PreferredTerm>Clostridium difficile</nciodm:PreferredTerm>
                </EnumeratedItem>
                <EnumeratedItem CodedValue="CLOSTRIDIUM FALLAX" nciodm:ExtCodeID="C86279">
                    <nciodm:CDISCSynonym>Clostridium pseudofallax</nciodm:CDISCSynonym>
                    <nciodm:CDISCDefinition>Any bacterial organism that can be assigned to the species Clostridium fallax.</nciodm:CDISCDefinition>
                    <nciodm:PreferredTerm>Clostridium fallax</nciodm:PreferredTerm>
                </EnumeratedItem>
                <EnumeratedItem CodedValue="CLOSTRIDIUM GLYCOLICUM" nciodm:ExtCodeID="C86280">
                    <nciodm:CDISCDefinition>Any bacterial organism that can be assigned to the species Clostridium glycolicum.</nciodm:CDISCDefinition>
                    <nciodm:PreferredTerm>Clostridium glycolicum</nciodm:PreferredTerm>
                </EnumeratedItem>
                <EnumeratedItem CodedValue="CLOSTRIDIUM HAEMOLYTICUM" nciodm:ExtCodeID="C86281">
                    <nciodm:CDISCDefinition>Any bacterial organism that can be assigned to the species Clostridium haemolyticum.</nciodm:CDISCDefinition>
                    <nciodm:PreferredTerm>Clostridium haemolyticum</nciodm:PreferredTerm>
                </EnumeratedItem>
                <EnumeratedItem CodedValue="CLOSTRIDIUM HATHEWAYI" nciodm:ExtCodeID="C114251">
                    <nciodm:CDISCDefinition>Any bacterial organism that can be assigned to the species Clostridium hathewayi.</nciodm:CDISCDefinition>
                    <nciodm:PreferredTerm>Clostridium hathewayi</nciodm:PreferredTerm>
                </EnumeratedItem>
                <EnumeratedItem CodedValue="CLOSTRIDIUM HISTOLYTICUM" nciodm:ExtCodeID="C86282">
                    <nciodm:CDISCDefinition>Any bacterial organism that can be assigned to the species Clostridium histolyticum.</nciodm:CDISCDefinition>
                    <nciodm:PreferredTerm>Clostridium histolyticum</nciodm:PreferredTerm>
                </EnumeratedItem>
                <EnumeratedItem CodedValue="CLOSTRIDIUM INNOCUUM" nciodm:ExtCodeID="C86283">
                    <nciodm:CDISCDefinition>Any bacterial organism that can be assigned to the species Clostridium innocuum.</nciodm:CDISCDefinition>
                    <nciodm:PreferredTerm>Clostridium innocuum</nciodm:PreferredTerm>
                </EnumeratedItem>
                <EnumeratedItem CodedValue="CLOSTRIDIUM LIMOSUM" nciodm:ExtCodeID="C86284">
                    <nciodm:CDISCDefinition>Any bacterial organism that can be assigned to the species Clostridium limosum.</nciodm:CDISCDefinition>
                    <nciodm:PreferredTerm>Clostridium limosum</nciodm:PreferredTerm>
                </EnumeratedItem>
                <EnumeratedItem CodedValue="CLOSTRIDIUM NOVYI" nciodm:ExtCodeID="C86285">
                    <nciodm:CDISCDefinition>Any bacterial organism that can be assigned to the species Clostridium novyi.</nciodm:CDISCDefinition>
                    <nciodm:PreferredTerm>Clostridium novyi</nciodm:PreferredTerm>
                </EnumeratedItem>
                <EnumeratedItem CodedValue="CLOSTRIDIUM OCEANICUM" nciodm:ExtCodeID="C86286">
                    <nciodm:CDISCDefinition>Any bacterial organism that can be assigned to the species Clostridium oceanicum.</nciodm:CDISCDefinition>
                    <nciodm:PreferredTerm>Clostridium oceanicum</nciodm:PreferredTerm>
                </EnumeratedItem>
                <EnumeratedItem CodedValue="CLOSTRIDIUM OROTICUM" nciodm:ExtCodeID="C122265">
                    <nciodm:CDISCSynonym>Zymobacterium oroticum</nciodm:CDISCSynonym>
                    <nciodm:CDISCDefinition>Any bacterial organism that can be assigned to the species Clostridium oroticum.</nciodm:CDISCDefinition>
                    <nciodm:PreferredTerm>Clostridium oroticum</nciodm:PreferredTerm>
                </EnumeratedItem>
                <EnumeratedItem CodedValue="CLOSTRIDIUM PARAPUTRIFICUM" nciodm:ExtCodeID="C86287">
                    <nciodm:CDISCDefinition>Any bacterial organism that can be assigned to the species Clostridium paraputrificum.</nciodm:CDISCDefinition>
                    <nciodm:PreferredTerm>Clostridium paraputrificum</nciodm:PreferredTerm>
                </EnumeratedItem>
                <EnumeratedItem CodedValue="CLOSTRIDIUM PERFRINGENS" nciodm:ExtCodeID="C86288">
                    <nciodm:CDISCSynonym>Clostridium welchii</nciodm:CDISCSynonym>
                    <nciodm:CDISCDefinition>Any bacterial organism that can be assigned to the species Clostridium perfringens.</nciodm:CDISCDefinition>
                    <nciodm:PreferredTerm>Clostridium perfringens</nciodm:PreferredTerm>
                </EnumeratedItem>
                <EnumeratedItem CodedValue="CLOSTRIDIUM PUTRIFICUM" nciodm:ExtCodeID="C86289">
                    <nciodm:CDISCSynonym>Clostridium lentoputrescens</nciodm:CDISCSynonym>
                    <nciodm:CDISCDefinition>Any bacterial organism that can be assigned to the species Clostridium putrificum.</nciodm:CDISCDefinition>
                    <nciodm:PreferredTerm>Clostridium putrificum</nciodm:PreferredTerm>
                </EnumeratedItem>
                <EnumeratedItem CodedValue="CLOSTRIDIUM RAMOSUM" nciodm:ExtCodeID="C86290">
                    <nciodm:CDISCSynonym>Actinomyces ramosus</nciodm:CDISCSynonym>
                    <nciodm:CDISCDefinition>Any bacterial organism that can be assigned to the species Clostridium ramosum.</nciodm:CDISCDefinition>
                    <nciodm:PreferredTerm>Clostridium ramosum</nciodm:PreferredTerm>
                </EnumeratedItem>
                <EnumeratedItem CodedValue="CLOSTRIDIUM RECTUM" nciodm:ExtCodeID="C86291">
                    <nciodm:CDISCDefinition>Any bacterial organism that can be assigned to the species Clostridium rectum.</nciodm:CDISCDefinition>
                    <nciodm:PreferredTerm>Clostridium rectum</nciodm:PreferredTerm>
                </EnumeratedItem>
                <EnumeratedItem CodedValue="CLOSTRIDIUM SARTAGOFORME" nciodm:ExtCodeID="C119325">
                    <nciodm:CDISCDefinition>Any bacterial organism that can be assigned to the species Clostridium sartagoforme.</nciodm:CDISCDefinition>
                    <nciodm:PreferredTerm>Clostridium sartagoforme</nciodm:PreferredTerm>
                </EnumeratedItem>
                <EnumeratedItem CodedValue="CLOSTRIDIUM SEPTICUM" nciodm:ExtCodeID="C86292">
                    <nciodm:CDISCDefinition>Any bacterial organism that can be assigned to the species Clostridium septicum.</nciodm:CDISCDefinition>
                    <nciodm:PreferredTerm>Clostridium septicum</nciodm:PreferredTerm>
                </EnumeratedItem>
                <EnumeratedItem CodedValue="CLOSTRIDIUM SORDELLII" nciodm:ExtCodeID="C86293">
                    <nciodm:CDISCDefinition>Any bacterial organism that can be assigned to the species Clostridium sordellii.</nciodm:CDISCDefinition>
                    <nciodm:PreferredTerm>Clostridium sordellii</nciodm:PreferredTerm>
                </EnumeratedItem>
                <EnumeratedItem CodedValue="CLOSTRIDIUM SPIROFORME" nciodm:ExtCodeID="C122266">
                    <nciodm:CDISCDefinition>Any bacterial organism that can be assigned to the species Clostridium spiroforme.</nciodm:CDISCDefinition>
                    <nciodm:PreferredTerm>Clostridium spiroforme</nciodm:PreferredTerm>
                </EnumeratedItem>
                <EnumeratedItem CodedValue="CLOSTRIDIUM SPOROGENES" nciodm:ExtCodeID="C86294">
                    <nciodm:CDISCDefinition>Any bacterial organism that can be assigned to the species Clostridium sporogenes.</nciodm:CDISCDefinition>
                    <nciodm:PreferredTerm>Clostridium sporogenes</nciodm:PreferredTerm>
                </EnumeratedItem>
                <EnumeratedItem CodedValue="CLOSTRIDIUM SUBTERMINALE" nciodm:ExtCodeID="C86295">
                    <nciodm:CDISCDefinition>Any bacterial organism that can be assigned to the species Clostridium subterminale.</nciodm:CDISCDefinition>
                    <nciodm:PreferredTerm>Clostridium subterminale</nciodm:PreferredTerm>
                </EnumeratedItem>
                <EnumeratedItem CodedValue="CLOSTRIDIUM SYMBIOSUM" nciodm:ExtCodeID="C86296">
                    <nciodm:CDISCSynonym>Bacteroides symbiosus</nciodm:CDISCSynonym>
                    <nciodm:CDISCDefinition>Any bacterial organism that can be assigned to the species Clostridium symbiosum.</nciodm:CDISCDefinition>
                    <nciodm:PreferredTerm>Clostridium symbiosum</nciodm:PreferredTerm>
                </EnumeratedItem>
                <EnumeratedItem CodedValue="CLOSTRIDIUM TERTIUM" nciodm:ExtCodeID="C86297">
                    <nciodm:CDISCDefinition>Any bacterial organism that can be assigned to the species Clostridium tertium.</nciodm:CDISCDefinition>
                    <nciodm:PreferredTerm>Clostridium tertium</nciodm:PreferredTerm>
                </EnumeratedItem>
                <EnumeratedItem CodedValue="CLOSTRIDIUM TETANI" nciodm:ExtCodeID="C86298">
                    <nciodm:CDISCDefinition>Any bacterial organism that can be assigned to the species Clostridium tetani.</nciodm:CDISCDefinition>
                    <nciodm:PreferredTerm>Clostridium tetani</nciodm:PreferredTerm>
                </EnumeratedItem>
                <EnumeratedItem CodedValue="CLOSTRIDIUM TYROBUTYRICUM" nciodm:ExtCodeID="C86299">
                    <nciodm:CDISCDefinition>Any bacterial organism that can be assigned to the species Clostridium tyrobutyricum.</nciodm:CDISCDefinition>
                    <nciodm:PreferredTerm>Clostridium tyrobutyricum</nciodm:PreferredTerm>
                </EnumeratedItem>
                <EnumeratedItem CodedValue="COAGULASE NEGATIVE STAPHYLOCOCCUS" nciodm:ExtCodeID="C62584">
                    <nciodm:CDISCDefinition>Any bacteria assigned to the genus Staphylococcus that does not express the enzyme coagulase.</nciodm:CDISCDefinition>
                    <nciodm:PreferredTerm>Coagulase-Negative Staphylococcus</nciodm:PreferredTerm>
                </EnumeratedItem>
                <EnumeratedItem CodedValue="COAGULASE POSITIVE STAPHYLOCOCCUS" nciodm:ExtCodeID="C62585">
                    <nciodm:CDISCDefinition>Any bacteria assigned to the genus Staphylococcus that expresses the enzyme coagulase.</nciodm:CDISCDefinition>
                    <nciodm:PreferredTerm>Coagulase-Positive Staphylococcus</nciodm:PreferredTerm>
                </EnumeratedItem>
                <EnumeratedItem CodedValue="COLIFORM BACTERIA" nciodm:ExtCodeID="C122046">
                    <nciodm:CDISCDefinition>A non-taxonomic grouping of rod-shaped, gram-negative, non-spore forming bacteria that ferment lactose, producing acid and gas.</nciodm:CDISCDefinition>
                    <nciodm:PreferredTerm>Coliform Bacteria</nciodm:PreferredTerm>
                </EnumeratedItem>
                <EnumeratedItem CodedValue="COLIFORM BACTERIA, LACTOSE FERMENTING" nciodm:ExtCodeID="C122267">
                    <nciodm:CDISCDefinition>A non-taxonomic grouping of coliform bacteria that can ferment lactose.</nciodm:CDISCDefinition>
                    <nciodm:PreferredTerm>Coliform Bacteria, Lactose Fermenting</nciodm:PreferredTerm>
                </EnumeratedItem>
                <EnumeratedItem CodedValue="COLIFORM BACTERIA, NON-LACTOSE FERMENTING" nciodm:ExtCodeID="C122268">
                    <nciodm:CDISCDefinition>A non-taxonomic grouping of coliform bacteria that cannot ferment lactose.</nciodm:CDISCDefinition>
                    <nciodm:PreferredTerm>Coliform Bacteria, Non-Lactose Fermenting</nciodm:PreferredTerm>
                </EnumeratedItem>
                <EnumeratedItem CodedValue="COLLINSELLA" nciodm:ExtCodeID="C86300">
                    <nciodm:CDISCDefinition>Any bacteria that is not assigned to the species level but can be assigned to the Collinsella genus level.</nciodm:CDISCDefinition>
                    <nciodm:PreferredTerm>Collinsella</nciodm:PreferredTerm>
                </EnumeratedItem>
                <EnumeratedItem CodedValue="COLLINSELLA AEROFACIENS" nciodm:ExtCodeID="C86301">
                    <nciodm:CDISCSynonym>Eubacterium aerofaciens</nciodm:CDISCSynonym>
                    <nciodm:CDISCDefinition>Any bacterial organism that can be assigned to the species Collinsella aerofaciens.</nciodm:CDISCDefinition>
                    <nciodm:PreferredTerm>Collinsella aerofaciens</nciodm:PreferredTerm>
                </EnumeratedItem>
                <EnumeratedItem CodedValue="COLLINSELLA INTESTINALIS" nciodm:ExtCodeID="C86302">
                    <nciodm:CDISCDefinition>Any bacterial organism that can be assigned to the species Collinsella intestinalis.</nciodm:CDISCDefinition>
                    <nciodm:PreferredTerm>Collinsella intestinalis</nciodm:PreferredTerm>
                </EnumeratedItem>
                <EnumeratedItem CodedValue="COLORADO TICK FEVER VIRUS" nciodm:ExtCodeID="C112240">
                    <nciodm:CDISCSynonym>CTFV</nciodm:CDISCSynonym>
                    <nciodm:CDISCDefinition>Any viral organism that can be assigned to the species Colorado tick fever virus.</nciodm:CDISCDefinition>
                    <nciodm:PreferredTerm>Colorado Tick Fever Virus</nciodm:PreferredTerm>
                </EnumeratedItem>
                <EnumeratedItem CodedValue="COMAMONAS" nciodm:ExtCodeID="C86303">
                    <nciodm:CDISCDefinition>Any bacteria that is not assigned to the species level but can be assigned to the Comamonas genus level.</nciodm:CDISCDefinition>
                    <nciodm:PreferredTerm>Comamonas</nciodm:PreferredTerm>
                </EnumeratedItem>
                <EnumeratedItem CodedValue="COMAMONAS TERRIGENA" nciodm:ExtCodeID="C86304">
                    <nciodm:CDISCDefinition>Any bacterial organism that can be assigned to the species Comamonas terrigena.</nciodm:CDISCDefinition>
                    <nciodm:PreferredTerm>Comamonas terrigena</nciodm:PreferredTerm>
                </EnumeratedItem>
                <EnumeratedItem CodedValue="COMAMONAS TESTOSTERONI" nciodm:ExtCodeID="C86305">
                    <nciodm:CDISCSynonym>Pseudomonas testosteroni</nciodm:CDISCSynonym>
                    <nciodm:CDISCDefinition>Any bacterial organism that can be assigned to the species Comamonas testosteroni.</nciodm:CDISCDefinition>
                    <nciodm:PreferredTerm>Comamonas testosteroni</nciodm:PreferredTerm>
                </EnumeratedItem>
                <EnumeratedItem CodedValue="CONIOCHAETA" nciodm:ExtCodeID="C123468">
                    <nciodm:CDISCSynonym>Lecythophora</nciodm:CDISCSynonym>
                    <nciodm:CDISCDefinition>Any fungal organism that is not assigned to the species level but can be assigned to the Coniochaeta genus level.</nciodm:CDISCDefinition>
                    <nciodm:PreferredTerm>Coniochaeta</nciodm:PreferredTerm>
                </EnumeratedItem>
                <EnumeratedItem CodedValue="COPRINELLUS RADIANS" nciodm:ExtCodeID="C127699">
                    <nciodm:CDISCSynonym>Coprinus radians</nciodm:CDISCSynonym>
                    <nciodm:CDISCDefinition>Any fungal organism that can be assigned to the species Coprinellus radians.</nciodm:CDISCDefinition>
                    <nciodm:PreferredTerm>Coprinellus radians</nciodm:PreferredTerm>
                </EnumeratedItem>
                <EnumeratedItem CodedValue="CORONAVIRUS" nciodm:ExtCodeID="C113205">
                    <nciodm:CDISCSynonym>Coronaviridae</nciodm:CDISCSynonym>
                    <nciodm:CDISCDefinition>Any viral organism that can be assigned to the family Coronaviridae.</nciodm:CDISCDefinition>
                    <nciodm:PreferredTerm>Coronaviridae</nciodm:PreferredTerm>
                </EnumeratedItem>
                <EnumeratedItem CodedValue="CORYNEBACTERIUM" nciodm:ExtCodeID="C76308">
                    <nciodm:CDISCDefinition>Any bacteria that is not assigned to the species level but can be assigned to the Corynebacterium genus level.</nciodm:CDISCDefinition>
                    <nciodm:PreferredTerm>Corynebacterium</nciodm:PreferredTerm>
                </EnumeratedItem>
                <EnumeratedItem CodedValue="CORYNEBACTERIUM ACCOLENS" nciodm:ExtCodeID="C86306">
                    <nciodm:CDISCSynonym>CDC Coryneform Group G-1</nciodm:CDISCSynonym>
                    <nciodm:CDISCDefinition>Any bacterial organism that can be assigned to the species Corynebacterium accolens.</nciodm:CDISCDefinition>
                    <nciodm:PreferredTerm>Corynebacterium accolens</nciodm:PreferredTerm>
                </EnumeratedItem>
                <EnumeratedItem CodedValue="CORYNEBACTERIUM AFERMENTANS" nciodm:ExtCodeID="C86307">
                    <nciodm:CDISCSynonym>Corynebacterium ANF-1</nciodm:CDISCSynonym>
                    <nciodm:CDISCDefinition>Any bacterial organism that can be assigned to the species Corynebacterium afermentans.</nciodm:CDISCDefinition>
                    <nciodm:PreferredTerm>Corynebacterium afermentans</nciodm:PreferredTerm>
                </EnumeratedItem>
                <EnumeratedItem CodedValue="CORYNEBACTERIUM AMYCOLATUM" nciodm:ExtCodeID="C86308">
                    <nciodm:CDISCDefinition>Any bacterial organism that can be assigned to the species Corynebacterium amycolatum.</nciodm:CDISCDefinition>
                    <nciodm:PreferredTerm>Corynebacterium amycolatum</nciodm:PreferredTerm>
                </EnumeratedItem>
                <EnumeratedItem CodedValue="CORYNEBACTERIUM ARGENTORATENSE" nciodm:ExtCodeID="C86309">
                    <nciodm:CDISCDefinition>Any bacterial organism that can be assigned to the species Corynebacterium argentoratense.</nciodm:CDISCDefinition>
                    <nciodm:PreferredTerm>Corynebacterium argentoratense</nciodm:PreferredTerm>
                </EnumeratedItem>
                <EnumeratedItem CodedValue="CORYNEBACTERIUM AURIMUCOSUM" nciodm:ExtCodeID="C127700">
                    <nciodm:CDISCSynonym>Corynebacterium nigricans</nciodm:CDISCSynonym>
                    <nciodm:CDISCDefinition>Any bacterial organism that can be assigned to the species Corynebacterium aurimucosum.</nciodm:CDISCDefinition>
                    <nciodm:PreferredTerm>Corynebacterium aurimucosum</nciodm:PreferredTerm>
                </EnumeratedItem>
                <EnumeratedItem CodedValue="CORYNEBACTERIUM AURIS" nciodm:ExtCodeID="C86310">
                    <nciodm:CDISCDefinition>Any bacterial organism that can be assigned to the species Corynebacterium auris.</nciodm:CDISCDefinition>
                    <nciodm:PreferredTerm>Corynebacterium auris</nciodm:PreferredTerm>
                </EnumeratedItem>
                <EnumeratedItem CodedValue="CORYNEBACTERIUM BOVIS" nciodm:ExtCodeID="C86311">
                    <nciodm:CDISCDefinition>Any bacterial organism that can be assigned to the species Corynebacterium bovis.</nciodm:CDISCDefinition>
                    <nciodm:PreferredTerm>Corynebacterium bovis</nciodm:PreferredTerm>
                </EnumeratedItem>
                <EnumeratedItem CodedValue="CORYNEBACTERIUM COYLEAE" nciodm:ExtCodeID="C122269">
                    <nciodm:CDISCDefinition>Any bacterial organism that can be assigned to the species Corynebacterium coyleae.</nciodm:CDISCDefinition>
                    <nciodm:PreferredTerm>Corynebacterium coyleae</nciodm:PreferredTerm>
                </EnumeratedItem>
                <EnumeratedItem CodedValue="CORYNEBACTERIUM DIPHTHERIAE" nciodm:ExtCodeID="C86312">
                    <nciodm:CDISCDefinition>Any bacterial organism that can be assigned to the species Corynebacterium diphtheriae.</nciodm:CDISCDefinition>
                    <nciodm:PreferredTerm>Corynebacterium diphtheriae</nciodm:PreferredTerm>
                </EnumeratedItem>
                <EnumeratedItem CodedValue="CORYNEBACTERIUM DIPHTHERIAE TYPE GRAVIS" nciodm:ExtCodeID="C122270">
                    <nciodm:CDISCDefinition>Any bacterial organism that can be assigned to the species Corynebacterium diphtheriae subspecies gravis.</nciodm:CDISCDefinition>
                    <nciodm:PreferredTerm>Corynebacterium diphtheriae bv. gravis</nciodm:PreferredTerm>
                </EnumeratedItem>
                <EnumeratedItem CodedValue="CORYNEBACTERIUM DIPHTHERIAE TYPE INTERMEDIUS" nciodm:ExtCodeID="C122271">
                    <nciodm:CDISCDefinition>Any bacterial organism that can be assigned to the species Corynebacterium diphtheriae subspecies intermedius.</nciodm:CDISCDefinition>
                    <nciodm:PreferredTerm>Corynebacterium diphtheriae bv. intermedius</nciodm:PreferredTerm>
                </EnumeratedItem>
                <EnumeratedItem CodedValue="CORYNEBACTERIUM DIPHTHERIAE TYPE MITIS" nciodm:ExtCodeID="C122272">
                    <nciodm:CDISCDefinition>Any bacterial organism that can be assigned to the species Corynebacterium diphtheriae subspecies mitis.</nciodm:CDISCDefinition>
                    <nciodm:PreferredTerm>Corynebacterium diphtheriae bv. mitis</nciodm:PreferredTerm>
                </EnumeratedItem>
                <EnumeratedItem CodedValue="CORYNEBACTERIUM DIPHTHERIAE VAR. BELFANTI" nciodm:ExtCodeID="C122273">
                    <nciodm:CDISCDefinition>Any bacterial organism that can be assigned to the species Corynebacterium diphtheriae subspecies belfanti.</nciodm:CDISCDefinition>
                    <nciodm:PreferredTerm>Corynebacterium diphtheriae bv. belfanti</nciodm:PreferredTerm>
                </EnumeratedItem>
                <EnumeratedItem CodedValue="CORYNEBACTERIUM GENITALIUM" nciodm:ExtCodeID="C86313">
                    <nciodm:CDISCDefinition>Any bacterial organism that can be assigned to the species Corynebacterium genitalium.</nciodm:CDISCDefinition>
                    <nciodm:PreferredTerm>Corynebacterium genitalium</nciodm:PreferredTerm>
                </EnumeratedItem>
                <EnumeratedItem CodedValue="CORYNEBACTERIUM GLUCURONOLYTICUM" nciodm:ExtCodeID="C86955">
                    <nciodm:CDISCDefinition>Any bacterial organism that can be assigned to the species Corynebacterium glucuronolyticum.</nciodm:CDISCDefinition>
                    <nciodm:PreferredTerm>Corynebacterium glucuronolyticum</nciodm:PreferredTerm>
                </EnumeratedItem>
                <EnumeratedItem CodedValue="CORYNEBACTERIUM JEIKEIUM" nciodm:ExtCodeID="C76307">
                    <nciodm:CDISCSynonym>CDC Coryneform Group JK</nciodm:CDISCSynonym>
                    <nciodm:CDISCDefinition>Any bacterial organism that can be assigned to the species Corynebacterium jeikeium.</nciodm:CDISCDefinition>
                    <nciodm:PreferredTerm>Corynebacterium jeikeium</nciodm:PreferredTerm>
                </EnumeratedItem>
                <EnumeratedItem CodedValue="CORYNEBACTERIUM KUTSCHERI" nciodm:ExtCodeID="C86314">
                    <nciodm:CDISCDefinition>Any bacterial organism that can be assigned to the species Corynebacterium kutscheri.</nciodm:CDISCDefinition>
                    <nciodm:PreferredTerm>Corynebacterium kutscheri</nciodm:PreferredTerm>
                </EnumeratedItem>
                <EnumeratedItem CodedValue="CORYNEBACTERIUM MACGINLEYI" nciodm:ExtCodeID="C86315">
                    <nciodm:CDISCDefinition>Any bacterial organism that can be assigned to the species Corynebacterium macginleyi.</nciodm:CDISCDefinition>
                    <nciodm:PreferredTerm>Corynebacterium macginleyi</nciodm:PreferredTerm>
                </EnumeratedItem>
                <EnumeratedItem CodedValue="CORYNEBACTERIUM MATRUCHOTII" nciodm:ExtCodeID="C86316">
                    <nciodm:CDISCSynonym>Bacterionema matruchotii</nciodm:CDISCSynonym>
                    <nciodm:CDISCDefinition>Any bacterial organism that can be assigned to the species Corynebacterium matruchotii.</nciodm:CDISCDefinition>
                    <nciodm:PreferredTerm>Corynebacterium matruchotii</nciodm:PreferredTerm>
                </EnumeratedItem>
                <EnumeratedItem CodedValue="CORYNEBACTERIUM MINUTISSIMUM" nciodm:ExtCodeID="C86317">
                    <nciodm:CDISCDefinition>Any bacterial organism that can be assigned to the species Corynebacterium minutissimum.</nciodm:CDISCDefinition>
                    <nciodm:PreferredTerm>Corynebacterium minutissimum</nciodm:PreferredTerm>
                </EnumeratedItem>
                <EnumeratedItem CodedValue="CORYNEBACTERIUM MUCIFACIENS" nciodm:ExtCodeID="C122274">
                    <nciodm:CDISCDefinition>Any bacterial organism that can be assigned to the species Corynebacterium mucifaciens.</nciodm:CDISCDefinition>
                    <nciodm:PreferredTerm>Corynebacterium mucifaciens</nciodm:PreferredTerm>
                </EnumeratedItem>
                <EnumeratedItem CodedValue="CORYNEBACTERIUM PILOSUM" nciodm:ExtCodeID="C86318">
                    <nciodm:CDISCDefinition>Any bacterial organism that can be assigned to the species Corynebacterium pilosum.</nciodm:CDISCDefinition>
                    <nciodm:PreferredTerm>Corynebacterium pilosum</nciodm:PreferredTerm>
                </EnumeratedItem>
                <EnumeratedItem CodedValue="CORYNEBACTERIUM PROPINQUUM" nciodm:ExtCodeID="C86319">
                    <nciodm:CDISCDefinition>Any bacterial organism that can be assigned to the species Corynebacterium propinquum.</nciodm:CDISCDefinition>
                    <nciodm:PreferredTerm>Corynebacterium propinquum</nciodm:PreferredTerm>
                </EnumeratedItem>
                <EnumeratedItem CodedValue="CORYNEBACTERIUM PSEUDODIPHTHERITICUM" nciodm:ExtCodeID="C86320">
                    <nciodm:CDISCSynonym>Corynebacterium hofmannii</nciodm:CDISCSynonym>
                    <nciodm:CDISCDefinition>Any bacterial organism that can be assigned to the species Corynebacterium pseudodiphtheriticum.</nciodm:CDISCDefinition>
                    <nciodm:PreferredTerm>Corynebacterium pseudodiphtheriticum</nciodm:PreferredTerm>
                </EnumeratedItem>
                <EnumeratedItem CodedValue="CORYNEBACTERIUM PSEUDOTUBERCULOSIS" nciodm:ExtCodeID="C86321">
                    <nciodm:CDISCDefinition>Any bacterial organism that can be assigned to the species Corynebacterium pseudotuberculosis.</nciodm:CDISCDefinition>
                    <nciodm:PreferredTerm>Corynebacterium pseudotuberculosis</nciodm:PreferredTerm>
                </EnumeratedItem>
                <EnumeratedItem CodedValue="CORYNEBACTERIUM RENALE" nciodm:ExtCodeID="C86322">
                    <nciodm:CDISCDefinition>Any bacterial organism that can be assigned to the species Corynebacterium renale.</nciodm:CDISCDefinition>
                    <nciodm:PreferredTerm>Corynebacterium renale</nciodm:PreferredTerm>
                </EnumeratedItem>
                <EnumeratedItem CodedValue="CORYNEBACTERIUM SIMULANS" nciodm:ExtCodeID="C122275">
                    <nciodm:CDISCDefinition>Any bacterial organism that can be assigned to the species Corynebacterium simulans.</nciodm:CDISCDefinition>
                    <nciodm:PreferredTerm>Corynebacterium simulans</nciodm:PreferredTerm>
                </EnumeratedItem>
                <EnumeratedItem CodedValue="CORYNEBACTERIUM STRIATUM" nciodm:ExtCodeID="C86323">
                    <nciodm:CDISCDefinition>Any bacterial organism that can be assigned to the species Corynebacterium striatum.</nciodm:CDISCDefinition>
                    <nciodm:PreferredTerm>Corynebacterium striatum</nciodm:PreferredTerm>
                </EnumeratedItem>
                <EnumeratedItem CodedValue="CORYNEBACTERIUM TUBERCULOSTEARICUM" nciodm:ExtCodeID="C114249">
                    <nciodm:CDISCDefinition>Any bacterial organism that can be assigned to the species Corynebacterium tuberculostearicum.</nciodm:CDISCDefinition>
                    <nciodm:PreferredTerm>Corynebacterium tuberculostearicum</nciodm:PreferredTerm>
                </EnumeratedItem>
                <EnumeratedItem CodedValue="CORYNEBACTERIUM ULCERANS" nciodm:ExtCodeID="C86324">
                    <nciodm:CDISCDefinition>Any bacterial organism that can be assigned to the species Corynebacterium ulcerans.</nciodm:CDISCDefinition>
                    <nciodm:PreferredTerm>Corynebacterium ulcerans</nciodm:PreferredTerm>
                </EnumeratedItem>
                <EnumeratedItem CodedValue="CORYNEBACTERIUM UREALYTICUM" nciodm:ExtCodeID="C86325">
                    <nciodm:CDISCSynonym>CDC Coryneform Group D-2</nciodm:CDISCSynonym>
                    <nciodm:CDISCDefinition>Any bacterial organism that can be assigned to the species Corynebacterium urealyticum.</nciodm:CDISCDefinition>
                    <nciodm:PreferredTerm>Corynebacterium urealyticum</nciodm:PreferredTerm>
                </EnumeratedItem>
                <EnumeratedItem CodedValue="CORYNEBACTERIUM XEROSIS" nciodm:ExtCodeID="C86326">
                    <nciodm:CDISCDefinition>Any bacterial organism that can be assigned to the species Corynebacterium xerosis.</nciodm:CDISCDefinition>
                    <nciodm:PreferredTerm>Corynebacterium xerosis</nciodm:PreferredTerm>
                </EnumeratedItem>
                <EnumeratedItem CodedValue="CORYNEFORM GRAM-POSITIVE BACILLUS" nciodm:ExtCodeID="C86327">
                    <nciodm:CDISCSynonym>Coryneform Gram-positive Rod</nciodm:CDISCSynonym>
                    <nciodm:CDISCDefinition>Any bacteria whose shape is similar to those bacteria assigned to the Corynebacterium genus and have a cell wall that contains low levels of peptidoglycan and stains pink with the Gram staining technique.</nciodm:CDISCDefinition>
                    <nciodm:PreferredTerm>Coryneform Gram Positive Bacillus</nciodm:PreferredTerm>
                </EnumeratedItem>
                <EnumeratedItem CodedValue="COXIELLA" nciodm:ExtCodeID="C76309">
                    <nciodm:CDISCDefinition>Any bacteria that is not assigned to the species level but can be assigned to the Coxiella genus level.</nciodm:CDISCDefinition>
                    <nciodm:PreferredTerm>Coxiella</nciodm:PreferredTerm>
                </EnumeratedItem>
                <EnumeratedItem CodedValue="COXIELLA BURNETII" nciodm:ExtCodeID="C86328">
                    <nciodm:CDISCDefinition>Any bacterial organism that can be assigned to the species Coxiella burnetii.</nciodm:CDISCDefinition>
                    <nciodm:PreferredTerm>Coxiella burnetii</nciodm:PreferredTerm>
                </EnumeratedItem>
                <EnumeratedItem CodedValue="COXSACKIE A VIRUS" nciodm:ExtCodeID="C112242">
                    <nciodm:CDISCSynonym>Coxsackie Virus A</nciodm:CDISCSynonym>
                    <nciodm:CDISCDefinition>Any viral organism that can be assigned to the Enterovirus A species subtype Coxsackie A virus.</nciodm:CDISCDefinition>
                    <nciodm:PreferredTerm>Coxsackie A Virus</nciodm:PreferredTerm>
                </EnumeratedItem>
                <EnumeratedItem CodedValue="COXSACKIE B VIRUS" nciodm:ExtCodeID="C112243">
                    <nciodm:CDISCSynonym>Coxsackie Virus B</nciodm:CDISCSynonym>
                    <nciodm:CDISCDefinition>Any viral organism that can be assigned to the Enterovirus B species subtype Coxsackie B virus.</nciodm:CDISCDefinition>
                    <nciodm:PreferredTerm>Coxsackie B Virus</nciodm:PreferredTerm>
                </EnumeratedItem>
                <EnumeratedItem CodedValue="CRONOBACTER SAKAZAKII" nciodm:ExtCodeID="C86329">
                    <nciodm:CDISCSynonym>Enterobacter sakazakii</nciodm:CDISCSynonym>
                    <nciodm:CDISCDefinition>Any bacterial organism that can be assigned to the species Cronobacter sakazakii.</nciodm:CDISCDefinition>
                    <nciodm:PreferredTerm>Cronobacter sakazakii</nciodm:PreferredTerm>
                </EnumeratedItem>
                <EnumeratedItem CodedValue="CRYPTOCOCCUS" nciodm:ExtCodeID="C77184">
                    <nciodm:CDISCDefinition>Any fungal organism that is not assigned to the species level but can be assigned to the Cryptococcus genus level.</nciodm:CDISCDefinition>
                    <nciodm:PreferredTerm>Cryptococcus</nciodm:PreferredTerm>
                </EnumeratedItem>
                <EnumeratedItem CodedValue="CRYPTOCOCCUS ALBIDUS" nciodm:ExtCodeID="C114267">
                    <nciodm:CDISCSynonym>Rhodotorula albida</nciodm:CDISCSynonym>
                    <nciodm:CDISCSynonym>Torula albida</nciodm:CDISCSynonym>
                    <nciodm:CDISCSynonym>Torulopsis albida</nciodm:CDISCSynonym>
                    <nciodm:CDISCSynonym>Torulopsis nadaensis</nciodm:CDISCSynonym>
                    <nciodm:CDISCSynonym>Torulopsis neoformans var. albida</nciodm:CDISCSynonym>
                    <nciodm:CDISCDefinition>Any fungal organism that can be assigned to the species Cryptococcus albidus.</nciodm:CDISCDefinition>
                    <nciodm:PreferredTerm>Cryptococcus albidus</nciodm:PreferredTerm>
                </EnumeratedItem>
                <EnumeratedItem CodedValue="CRYPTOCOCCUS ALBIDUS VAR. ALBIDUS" nciodm:ExtCodeID="C127701">
                    <nciodm:CDISCDefinition>Any fungal organism that can be assigned to the species Cryptococcus albidus variant albidus.</nciodm:CDISCDefinition>
                    <nciodm:PreferredTerm>Cryptococcus albidus Var. albidus</nciodm:PreferredTerm>
                </EnumeratedItem>
                <EnumeratedItem CodedValue="CRYPTOCOCCUS DIFFLUENS" nciodm:ExtCodeID="C127702">
                    <nciodm:CDISCSynonym>Cryptococcus albidus var. diffluens</nciodm:CDISCSynonym>
                    <nciodm:CDISCSynonym>Cryptococcus diffluens var. diffluens</nciodm:CDISCSynonym>
                    <nciodm:CDISCSynonym>Torulopsis diffluens</nciodm:CDISCSynonym>
                    <nciodm:CDISCDefinition>Any fungal organism that can be assigned to the species Cryptococcus diffluens.</nciodm:CDISCDefinition>
                    <nciodm:PreferredTerm>Cryptococcus diffluens</nciodm:PreferredTerm>
                </EnumeratedItem>
                <EnumeratedItem CodedValue="CRYPTOCOCCUS GATTII" nciodm:ExtCodeID="C114268">
                    <nciodm:CDISCSynonym>Cryptococcus bacillisporus</nciodm:CDISCSynonym>
                    <nciodm:CDISCDefinition>Any fungal organism that can be assigned to the species Cryptococcus gattii.</nciodm:CDISCDefinition>
                    <nciodm:PreferredTerm>Cryptococcus gattii</nciodm:PreferredTerm>
                </EnumeratedItem>
                <EnumeratedItem CodedValue="CRYPTOCOCCUS LAURENTII" nciodm:ExtCodeID="C114269">
                    <nciodm:CDISCDefinition>Any fungal organism that can be assigned to the species Cryptococcus laurentii.</nciodm:CDISCDefinition>
                    <nciodm:PreferredTerm>Cryptococcus laurentii</nciodm:PreferredTerm>
                </EnumeratedItem>
                <EnumeratedItem CodedValue="CRYPTOCOCCUS NEOFORMANS" nciodm:ExtCodeID="C14195">
                    <nciodm:CDISCSynonym>Blastomyces neoformans</nciodm:CDISCSynonym>
                    <nciodm:CDISCSynonym>Debaryomyces neoformans</nciodm:CDISCSynonym>
                    <nciodm:CDISCSynonym>Lipomyces neoformans</nciodm:CDISCSynonym>
                    <nciodm:CDISCSynonym>Saccharomyces neoformans</nciodm:CDISCSynonym>
                    <nciodm:CDISCSynonym>Torula neoformans</nciodm:CDISCSynonym>
                    <nciodm:CDISCSynonym>Torulopsis neoformans</nciodm:CDISCSynonym>
                    <nciodm:CDISCDefinition>Any fungal organism that can be assigned to the species Cryptococcus neoformans.</nciodm:CDISCDefinition>
                    <nciodm:PreferredTerm>Cryptococcus neoformans</nciodm:PreferredTerm>
                </EnumeratedItem>
                <EnumeratedItem CodedValue="CRYPTOCOCCUS RANDHAWII" nciodm:ExtCodeID="C114266">
                    <nciodm:CDISCDefinition>Any fungal organism that can be assigned to the species Cryptococcus randhawii.</nciodm:CDISCDefinition>
                    <nciodm:PreferredTerm>Cryptococcus randhawii</nciodm:PreferredTerm>
                </EnumeratedItem>
                <EnumeratedItem CodedValue="CRYPTOCOCCUS TERREUS" nciodm:ExtCodeID="C127703">
                    <nciodm:CDISCDefinition>Any fungal organism that can be assigned to the species Cryptococcus terreus.</nciodm:CDISCDefinition>
                    <nciodm:PreferredTerm>Cryptococcus terreus</nciodm:PreferredTerm>
                </EnumeratedItem>
                <EnumeratedItem CodedValue="CRYPTOSPORIDIUM" nciodm:ExtCodeID="C77214">
                    <nciodm:CDISCDefinition>Any unicellular, eukaryotic organism that is not assigned to the species level but can be assigned to the Cryptosporidium genus level.</nciodm:CDISCDefinition>
                    <nciodm:PreferredTerm>Cryptosporidium</nciodm:PreferredTerm>
                </EnumeratedItem>
                <EnumeratedItem CodedValue="CRYPTOSPORIDIUM PARVUM" nciodm:ExtCodeID="C122276">
                    <nciodm:CDISCDefinition>Any unicellular, eukaryotic organism that can be assigned to the species Cryptosporidium parvum.</nciodm:CDISCDefinition>
                    <nciodm:PreferredTerm>Cryptosporidium parvum</nciodm:PreferredTerm>
                </EnumeratedItem>
                <EnumeratedItem CodedValue="CUPRIAVIDUS" nciodm:ExtCodeID="C86330">
                    <nciodm:CDISCDefinition>Any bacteria that is not assigned to the species level but can be assigned to the Cupriavidus genus level.</nciodm:CDISCDefinition>
                    <nciodm:PreferredTerm>Cupriavidus</nciodm:PreferredTerm>
                </EnumeratedItem>
                <EnumeratedItem CodedValue="CUPRIAVIDUS PAUCULUS" nciodm:ExtCodeID="C86331">
                    <nciodm:CDISCSynonym>CDC Group IVc-2</nciodm:CDISCSynonym>
                    <nciodm:CDISCSynonym>Ralstonia paucula</nciodm:CDISCSynonym>
                    <nciodm:CDISCSynonym>Wautersia paucula</nciodm:CDISCSynonym>
                    <nciodm:CDISCDefinition>Any bacterial organism that can be assigned to the species Cupriavidus pauculus.</nciodm:CDISCDefinition>
                    <nciodm:PreferredTerm>Cupriavidus pauculus</nciodm:PreferredTerm>
                </EnumeratedItem>
                <EnumeratedItem CodedValue="CURVULARIA" nciodm:ExtCodeID="C122277">
                    <nciodm:CDISCDefinition>Any fungal organism that is not assigned to the species level but can be assigned to the Curvularia genus level.</nciodm:CDISCDefinition>
                    <nciodm:PreferredTerm>Curvularia</nciodm:PreferredTerm>
                </EnumeratedItem>
                <EnumeratedItem CodedValue="CYCLOSPORA" nciodm:ExtCodeID="C122047">
                    <nciodm:CDISCDefinition>Any unicellular, eukaryotic organism that is not assigned to the species level but can be assigned to the Cyclospora genus level.</nciodm:CDISCDefinition>
                    <nciodm:PreferredTerm>Cyclospora</nciodm:PreferredTerm>
                </EnumeratedItem>
                <EnumeratedItem CodedValue="CYCLOSPORA CAYETANENSIS" nciodm:ExtCodeID="C122278">
                    <nciodm:CDISCSynonym>Cyclospora cayetanesis</nciodm:CDISCSynonym>
                    <nciodm:CDISCDefinition>Any unicellular, eukaryotic organism that can be assigned to the species Cyclospora cayetanensis.</nciodm:CDISCDefinition>
                    <nciodm:PreferredTerm>Cyclospora cayetanensis</nciodm:PreferredTerm>
                </EnumeratedItem>
                <EnumeratedItem CodedValue="CYSTOBASIDIUM MINUTUM" nciodm:ExtCodeID="C127704">
                    <nciodm:CDISCSynonym>Rhodotorula minuta</nciodm:CDISCSynonym>
                    <nciodm:CDISCSynonym>Torula minuta</nciodm:CDISCSynonym>
                    <nciodm:CDISCDefinition>Any fungal organism that can be assigned to the species Cystobasidium minutum.</nciodm:CDISCDefinition>
                    <nciodm:PreferredTerm>Cystobasidium minutum</nciodm:PreferredTerm>
                </EnumeratedItem>
                <EnumeratedItem CodedValue="CYSTOISOSPORA BELLI" nciodm:ExtCodeID="C123647">
                    <nciodm:CDISCSynonym>Isospora belli</nciodm:CDISCSynonym>
                    <nciodm:CDISCDefinition>Any unicellular, eukaryotic organism that can be assigned to the species Cystoisospora belli.</nciodm:CDISCDefinition>
                    <nciodm:PreferredTerm>Cystoisospora belli</nciodm:PreferredTerm>
                </EnumeratedItem>
                <EnumeratedItem CodedValue="CYTOMEGALOVIRUS" nciodm:ExtCodeID="C14196">
                    <nciodm:CDISCDefinition>Any viral organism that can be assigned to the genus Cytomegalovirus.</nciodm:CDISCDefinition>
                    <nciodm:PreferredTerm>Cytomegalovirus</nciodm:PreferredTerm>
                </EnumeratedItem>
                <EnumeratedItem CodedValue="DELFTIA" nciodm:ExtCodeID="C86332">
                    <nciodm:CDISCDefinition>Any bacteria that is not assigned to the species level but can be assigned to the Delftia genus level.</nciodm:CDISCDefinition>
                    <nciodm:PreferredTerm>Delftia</nciodm:PreferredTerm>
                </EnumeratedItem>
                <EnumeratedItem CodedValue="DELFTIA ACIDOVORANS" nciodm:ExtCodeID="C86333">
                    <nciodm:CDISCSynonym>Comamonas acidovorans</nciodm:CDISCSynonym>
                    <nciodm:CDISCSynonym>Pseudomonas acidovorans</nciodm:CDISCSynonym>
                    <nciodm:CDISCDefinition>Any bacterial organism that can be assigned to the species Delftia acidovorans.</nciodm:CDISCDefinition>
                    <nciodm:PreferredTerm>Delftia acidovorans</nciodm:PreferredTerm>
                </EnumeratedItem>
                <EnumeratedItem CodedValue="DELTACORONAVIRUS" nciodm:ExtCodeID="C122279">
                    <nciodm:CDISCSynonym>Coronavirus Group 3</nciodm:CDISCSynonym>
                    <nciodm:CDISCDefinition>Any viral organism that can be assigned to the genus Deltacoronavirus.</nciodm:CDISCDefinition>
                    <nciodm:PreferredTerm>Deltacoronavirus</nciodm:PreferredTerm>
                </EnumeratedItem>
                <EnumeratedItem CodedValue="DELTARETROVIRUS" nciodm:ExtCodeID="C14347">
                    <nciodm:CDISCDefinition>Any viral organism that can be assigned to the genus Deltaretrovirus.</nciodm:CDISCDefinition>
                    <nciodm:PreferredTerm>Deltaretrovirus</nciodm:PreferredTerm>
                </EnumeratedItem>
                <EnumeratedItem CodedValue="DENGUE VIRUS" nciodm:ExtCodeID="C112036">
                    <nciodm:CDISCDefinition>Any viral organism that can be assigned to the species Dengue virus.</nciodm:CDISCDefinition>
                    <nciodm:PreferredTerm>Dengue Virus</nciodm:PreferredTerm>
                </EnumeratedItem>
                <EnumeratedItem CodedValue="DENGUE VIRUS 1" nciodm:ExtCodeID="C112266">
                    <nciodm:CDISCSynonym>DEN-1</nciodm:CDISCSynonym>
                    <nciodm:CDISCSynonym>DENV-1</nciodm:CDISCSynonym>
                    <nciodm:CDISCSynonym>Dengue Virus Type 1</nciodm:CDISCSynonym>
                    <nciodm:CDISCDefinition>Any viral organism that can be assigned to the Dengue virus serotype 1.</nciodm:CDISCDefinition>
                    <nciodm:PreferredTerm>Dengue Virus 1</nciodm:PreferredTerm>
                </EnumeratedItem>
                <EnumeratedItem CodedValue="DENGUE VIRUS 2" nciodm:ExtCodeID="C112267">
                    <nciodm:CDISCSynonym>DEN-2</nciodm:CDISCSynonym>
                    <nciodm:CDISCSynonym>DENV-2</nciodm:CDISCSynonym>
                    <nciodm:CDISCSynonym>Dengue Virus Type 2</nciodm:CDISCSynonym>
                    <nciodm:CDISCDefinition>Any viral organism that can be assigned to the Dengue virus serotype 2.</nciodm:CDISCDefinition>
                    <nciodm:PreferredTerm>Dengue Virus 2</nciodm:PreferredTerm>
                </EnumeratedItem>
                <EnumeratedItem CodedValue="DENGUE VIRUS 3" nciodm:ExtCodeID="C112268">
                    <nciodm:CDISCSynonym>DEN-3</nciodm:CDISCSynonym>
                    <nciodm:CDISCSynonym>DENV-3</nciodm:CDISCSynonym>
                    <nciodm:CDISCSynonym>Dengue Virus Type 3</nciodm:CDISCSynonym>
                    <nciodm:CDISCDefinition>Any viral organism that can be assigned to the Dengue virus serotype 3.</nciodm:CDISCDefinition>
                    <nciodm:PreferredTerm>Dengue Virus 3</nciodm:PreferredTerm>
                </EnumeratedItem>
                <EnumeratedItem CodedValue="DENGUE VIRUS 4" nciodm:ExtCodeID="C112269">
                    <nciodm:CDISCSynonym>DEN-4</nciodm:CDISCSynonym>
                    <nciodm:CDISCSynonym>DENV-4</nciodm:CDISCSynonym>
                    <nciodm:CDISCSynonym>Dengue Virus Type 4</nciodm:CDISCSynonym>
                    <nciodm:CDISCDefinition>Any viral organism that can be assigned to the Dengue virus serotype 4.</nciodm:CDISCDefinition>
                    <nciodm:PreferredTerm>Dengue Virus 4</nciodm:PreferredTerm>
                </EnumeratedItem>
                <EnumeratedItem CodedValue="DERMABACTER" nciodm:ExtCodeID="C86334">
                    <nciodm:CDISCDefinition>Any bacteria that is not assigned to the species level but can be assigned to the Dermabacter genus level.</nciodm:CDISCDefinition>
                    <nciodm:PreferredTerm>Dermabacter</nciodm:PreferredTerm>
                </EnumeratedItem>
                <EnumeratedItem CodedValue="DERMABACTER HOMINIS" nciodm:ExtCodeID="C86335">
                    <nciodm:CDISCDefinition>Any bacterial organism that can be assigned to the species Dermabacter hominis.</nciodm:CDISCDefinition>
                    <nciodm:PreferredTerm>Dermabacter hominis</nciodm:PreferredTerm>
                </EnumeratedItem>
                <EnumeratedItem CodedValue="DERMACOCCUS NISHINOMIYAENSIS" nciodm:ExtCodeID="C86336">
                    <nciodm:CDISCSynonym>Micrococcus nishinomiyaensis</nciodm:CDISCSynonym>
                    <nciodm:CDISCDefinition>Any bacterial organism that can be assigned to the species Dermacoccus nishinomiyaensis.</nciodm:CDISCDefinition>
                    <nciodm:PreferredTerm>Dermacoccus nishinomiyaensis</nciodm:PreferredTerm>
                </EnumeratedItem>
                <EnumeratedItem CodedValue="DERMATOPHILUS" nciodm:ExtCodeID="C86337">
                    <nciodm:CDISCDefinition>Any bacteria that is not assigned to the species level but can be assigned to the Dermatophilus genus level.</nciodm:CDISCDefinition>
                    <nciodm:PreferredTerm>Dermatophilus</nciodm:PreferredTerm>
                </EnumeratedItem>
                <EnumeratedItem CodedValue="DERMATOPHILUS CONGOLENSIS" nciodm:ExtCodeID="C86338">
                    <nciodm:CDISCDefinition>Any bacterial organism that can be assigned to the species Dermatophilus congolensis.</nciodm:CDISCDefinition>
                    <nciodm:PreferredTerm>Dermatophilus congolensis</nciodm:PreferredTerm>
                </EnumeratedItem>
                <EnumeratedItem CodedValue="DESULFOVIBRIO" nciodm:ExtCodeID="C86339">
                    <nciodm:CDISCSynonym>Desulfomonas</nciodm:CDISCSynonym>
                    <nciodm:CDISCDefinition>Any bacteria that is not assigned to the species level but can be assigned to the Desulfovibrio genus level.</nciodm:CDISCDefinition>
                    <nciodm:PreferredTerm>Desulfovibrio</nciodm:PreferredTerm>
                </EnumeratedItem>
                <EnumeratedItem CodedValue="DESULFOVIBRIO DESULFURICANS" nciodm:ExtCodeID="C86340">
                    <nciodm:CDISCDefinition>Any bacterial organism that can be assigned to the species Desulfovibrio desulfuricans.</nciodm:CDISCDefinition>
                    <nciodm:PreferredTerm>Desulfovibrio desulfuricans</nciodm:PreferredTerm>
                </EnumeratedItem>
                <EnumeratedItem CodedValue="DESULFOVIBRIO FAIRFIELDENSIS" nciodm:ExtCodeID="C86341">
                    <nciodm:CDISCDefinition>Any bacterial organism that can be assigned to the species Desulfovibrio fairfieldensis.</nciodm:CDISCDefinition>
                    <nciodm:PreferredTerm>Desulfovibrio fairfieldensis</nciodm:PreferredTerm>
                </EnumeratedItem>
                <EnumeratedItem CodedValue="DESULFOVIBRIO PIGER" nciodm:ExtCodeID="C86342">
                    <nciodm:CDISCSynonym>Desulfomonas pigra</nciodm:CDISCSynonym>
                    <nciodm:CDISCDefinition>Any bacterial organism that can be assigned to the species Desulfovibrio piger.</nciodm:CDISCDefinition>
                    <nciodm:PreferredTerm>Desulfovibrio piger</nciodm:PreferredTerm>
                </EnumeratedItem>
                <EnumeratedItem CodedValue="DIALISTER MICRAEROPHILUS" nciodm:ExtCodeID="C122280">
                    <nciodm:CDISCDefinition>Any bacterial organism that can be assigned to the species Dialister micraerophilus.</nciodm:CDISCDefinition>
                    <nciodm:PreferredTerm>Dialister micraerophilus</nciodm:PreferredTerm>
                </EnumeratedItem>
                <EnumeratedItem CodedValue="DIALISTER PNEUMOSINTES" nciodm:ExtCodeID="C122281">
                    <nciodm:CDISCSynonym>Bacillus pneumosintes</nciodm:CDISCSynonym>
                    <nciodm:CDISCSynonym>Bacteroides pneumosintes</nciodm:CDISCSynonym>
                    <nciodm:CDISCDefinition>Any bacterial organism that can be assigned to the species Dialister pneumosintes.</nciodm:CDISCDefinition>
                    <nciodm:PreferredTerm>Dialister pneumosintes</nciodm:PreferredTerm>
                </EnumeratedItem>
                <EnumeratedItem CodedValue="DICKEYA DADANTII" nciodm:ExtCodeID="C127705">
                    <nciodm:CDISCDefinition>Any bacterial organism that can be assigned to the species Dickeya dadantii.</nciodm:CDISCDefinition>
                    <nciodm:PreferredTerm>Dickeya dadantii</nciodm:PreferredTerm>
                </EnumeratedItem>
                <EnumeratedItem CodedValue="DIENTAMOEBA FRAGILIS" nciodm:ExtCodeID="C122282">
                    <nciodm:CDISCDefinition>Any unicellular, eukaryotic organism that can be assigned to the species Dientamoeba fragilis.</nciodm:CDISCDefinition>
                    <nciodm:PreferredTerm>Dientamoeba fragilis</nciodm:PreferredTerm>
                </EnumeratedItem>
                <EnumeratedItem CodedValue="DIPETALONEMA" nciodm:ExtCodeID="C122283">
                    <nciodm:CDISCDefinition>Any nematode parasite that is not assigned to the species level but can be assigned to the Dipetalonema genus level.</nciodm:CDISCDefinition>
                    <nciodm:PreferredTerm>Dipetalonema</nciodm:PreferredTerm>
                </EnumeratedItem>
                <EnumeratedItem CodedValue="DIPHTHEROID BACILLUS" nciodm:ExtCodeID="C86343">
                    <nciodm:CDISCDefinition>Any of a number of rod-shaped bacteria that resemble Corynebacterium diphtheriae, either in morphology or etiology.</nciodm:CDISCDefinition>
                    <nciodm:PreferredTerm>Diptheroid Bacillus</nciodm:PreferredTerm>
                </EnumeratedItem>
                <EnumeratedItem CodedValue="DIPHYLLOBOTHRIUM LATUM" nciodm:ExtCodeID="C122284">
                    <nciodm:CDISCSynonym>Broad Fish Tapeworm</nciodm:CDISCSynonym>
                    <nciodm:CDISCDefinition>Any cestode parasite that can be assigned to the species Diphyllobothrium latum.</nciodm:CDISCDefinition>
                    <nciodm:PreferredTerm>Diphyllobothrium latum</nciodm:PreferredTerm>
                </EnumeratedItem>
                <EnumeratedItem CodedValue="DIPYLIDIUM CANINUM" nciodm:ExtCodeID="C122285">
                    <nciodm:CDISCSynonym>Cucumber Tapeworm</nciodm:CDISCSynonym>
                    <nciodm:CDISCSynonym>Double-pore Tapeworm</nciodm:CDISCSynonym>
                    <nciodm:CDISCSynonym>Flea Tapeworm</nciodm:CDISCSynonym>
                    <nciodm:CDISCDefinition>Any cestode parasite that can be assigned to the species Dipylidium caninum.</nciodm:CDISCDefinition>
                    <nciodm:PreferredTerm>Dipylidium caninum</nciodm:PreferredTerm>
                </EnumeratedItem>
                <EnumeratedItem CodedValue="DOLOSIGRANULUM PIGRUM" nciodm:ExtCodeID="C122286">
                    <nciodm:CDISCDefinition>Any bacterial organism that can be assigned to the species Dolosigranulum pigrum.</nciodm:CDISCDefinition>
                    <nciodm:PreferredTerm>Dolosigranulum pigrum</nciodm:PreferredTerm>
                </EnumeratedItem>
                <EnumeratedItem CodedValue="DOREA" nciodm:ExtCodeID="C122287">
                    <nciodm:CDISCDefinition>Any bacterial organism that can be assigned to the genus Dorea.</nciodm:CDISCDefinition>
                    <nciodm:PreferredTerm>Dorea</nciodm:PreferredTerm>
                </EnumeratedItem>
                <EnumeratedItem CodedValue="DRACUNCULUS MEDINENSIS" nciodm:ExtCodeID="C122288">
                    <nciodm:CDISCSynonym>Guinea worm</nciodm:CDISCSynonym>
                    <nciodm:CDISCDefinition>Any nematode parasite that can be assigned to the species Dracunculus medinensis.</nciodm:CDISCDefinition>
                    <nciodm:PreferredTerm>Dracunculus medinensis</nciodm:PreferredTerm>
                </EnumeratedItem>
                <EnumeratedItem CodedValue="EBOLA VIRUS" nciodm:ExtCodeID="C112271">
                    <nciodm:CDISCSynonym>EBOV</nciodm:CDISCSynonym>
                    <nciodm:CDISCDefinition>Any viral organism that can be assigned to the genus Ebola virus.</nciodm:CDISCDefinition>
                    <nciodm:PreferredTerm>Ebola Virus</nciodm:PreferredTerm>
                </EnumeratedItem>
                <EnumeratedItem CodedValue="ECHINOCOCCUS GRANULOSUS" nciodm:ExtCodeID="C122289">
                    <nciodm:CDISCSynonym>Hydatid Worm</nciodm:CDISCSynonym>
                    <nciodm:CDISCSynonym>Hyper Tapeworm</nciodm:CDISCSynonym>
                    <nciodm:CDISCDefinition>Any cestode parasite that can be assigned to the species Echinococcus granulosus.</nciodm:CDISCDefinition>
                    <nciodm:PreferredTerm>Echinococcus granulosus</nciodm:PreferredTerm>
                </EnumeratedItem>
                <EnumeratedItem CodedValue="ECHINOCOCCUS MULTILOCULARIS" nciodm:ExtCodeID="C122290">
                    <nciodm:CDISCDefinition>Any cestode parasite that can be assigned to the species Echinococcus multilocularis.</nciodm:CDISCDefinition>
                    <nciodm:PreferredTerm>Echinococcus multilocularis</nciodm:PreferredTerm>
                </EnumeratedItem>
                <EnumeratedItem CodedValue="ECHINOCOCCUS VOGELI" nciodm:ExtCodeID="C122291">
                    <nciodm:CDISCDefinition>Any cestode parasite that can be assigned to the species Echinococcus vogeli.</nciodm:CDISCDefinition>
                    <nciodm:PreferredTerm>Echinococcus vogeli</nciodm:PreferredTerm>
                </EnumeratedItem>
                <EnumeratedItem CodedValue="ECHOVIRUS" nciodm:ExtCodeID="C112272">
                    <nciodm:CDISCDefinition>Any viral organism that can be assigned to the species Echovirus.</nciodm:CDISCDefinition>
