<CodeList xmlns="http://www.cdisc.org/ns/odm/v1.3" xmlns:nciodm="http://ncicb.nci.nih.gov/xml/odm/EVS/CDISC" xmlns:xs="http://www.w3.org/2001/XMLSchema-instance" OID="CL.C120980.CRQ02TN" Name="Chronic Respiratory Questionnaire Self-Administered Standardized Format Follow-Up Administration Version Questionnaire Test Name" DataType="text" nciodm:ExtCodeID="C120980" nciodm:CodeListExtensible="No">
                <Description>
                    <TranslatedText xml:lang="en">Chronic Respiratory Questionnaire Self-Administered Standardized Format Follow-Up Administration Version test name.</TranslatedText>
                </Description>
                <EnumeratedItem CodedValue="CRQ02-Confident to Deal With Illness" nciodm:ExtCodeID="C121039">
                    <nciodm:CDISCSynonym>CRQ02-Confident to Deal With Illness</nciodm:CDISCSynonym>
                    <nciodm:CDISCDefinition>Chronic Respiratory Questionnaire Self-Administered Standardized Format (CRQ-SAS) Follow-up Administration Version - In the last 2 weeks, how much of the time did you feel very confident and sure that you could deal with your illness?</nciodm:CDISCDefinition>
                    <nciodm:PreferredTerm>CRQ-SAS Follow-Up Administration Version - Feel Confident to Deal With Illness</nciodm:PreferredTerm>
                </EnumeratedItem>
                <EnumeratedItem CodedValue="CRQ02-Control of Breathing Problems" nciodm:ExtCodeID="C121042">
                    <nciodm:CDISCSynonym>CRQ02-Control of Breathing Problems</nciodm:CDISCSynonym>
                    <nciodm:CDISCDefinition>Chronic Respiratory Questionnaire Self-Administered Standardized Format (CRQ-SAS) Follow-up Administration Version - How often during the last 2 weeks did you feel you had complete control of your breathing problems?</nciodm:CDISCDefinition>
                    <nciodm:PreferredTerm>CRQ-SAS Follow-Up Administration Version - Had Control of Breathing Problems</nciodm:PreferredTerm>
                </EnumeratedItem>
                <EnumeratedItem CodedValue="CRQ02-Embarrassed by Coughing" nciodm:ExtCodeID="C121038">
                    <nciodm:CDISCSynonym>CRQ02-Embarrassed by Coughing</nciodm:CDISCSynonym>
                    <nciodm:CDISCDefinition>Chronic Respiratory Questionnaire Self-Administered Standardized Format (CRQ-SAS) Follow-up Administration Version - How often during the last 2 weeks have you felt embarrassed by your coughing or heavy breathing?</nciodm:CDISCDefinition>
                    <nciodm:PreferredTerm>CRQ-SAS Follow-Up Administration Version - Embarrassed by Coughing</nciodm:PreferredTerm>
                </EnumeratedItem>
                <EnumeratedItem CodedValue="CRQ02-Energy" nciodm:ExtCodeID="C121040">
                    <nciodm:CDISCSynonym>CRQ02-Energy</nciodm:CDISCSynonym>
                    <nciodm:CDISCDefinition>Chronic Respiratory Questionnaire Self-Administered Standardized Format (CRQ-SAS) Follow-up Administration Version - How much energy have you had in the last 2 weeks?</nciodm:CDISCDefinition>
                    <nciodm:PreferredTerm>CRQ-SAS Follow-Up Administration Version - Energy</nciodm:PreferredTerm>
                </EnumeratedItem>
                <EnumeratedItem CodedValue="CRQ02-Fatigue" nciodm:ExtCodeID="C121037">
                    <nciodm:CDISCSynonym>CRQ02-Fatigue</nciodm:CDISCSynonym>
                    <nciodm:CDISCDefinition>Chronic Respiratory Questionnaire Self-Administered Standardized Format (CRQ-SAS) Follow-up Administration Version - How about fatigue? How tired have you felt over the last 2 weeks?</nciodm:CDISCDefinition>
                    <nciodm:PreferredTerm>CRQ-SAS Follow-Up Administration Version - Fatigue</nciodm:PreferredTerm>
                </EnumeratedItem>
                <EnumeratedItem CodedValue="CRQ02-Feel Relaxed and Free of Tension" nciodm:ExtCodeID="C121043">
                    <nciodm:CDISCSynonym>CRQ02-Feel Relaxed and Free of Tension</nciodm:CDISCSynonym>
                    <nciodm:CDISCDefinition>Chronic Respiratory Questionnaire Self-Administered Standardized Format (CRQ-SAS) Follow-up Administration Version - How much of the time during the last 2 weeks did you feel relaxed and free of tension?</nciodm:CDISCDefinition>
                    <nciodm:PreferredTerm>CRQ-SAS Follow-Up Administration Version - Feel Relaxed and Free of Tension</nciodm:PreferredTerm>
                </EnumeratedItem>
                <EnumeratedItem CodedValue="CRQ02-Feel Upset Diff Getting Breath" nciodm:ExtCodeID="C121048">
                    <nciodm:CDISCSynonym>CRQ02-Feel Upset Diff Getting Breath</nciodm:CDISCSynonym>
                    <nciodm:CDISCDefinition>Chronic Respiratory Questionnaire Self-Administered Standardized Format (CRQ-SAS) Follow-up Administration Version - How often during the last 2 weeks did you feel upset or scared when you had difficulty getting your breath?</nciodm:CDISCDefinition>
                    <nciodm:PreferredTerm>CRQ-SAS Follow-Up Administration Version - Feel Upset When Had Difficulty Getting Breath</nciodm:PreferredTerm>
                </EnumeratedItem>
                <EnumeratedItem CodedValue="CRQ02-Feel Upset, Worried or Depressed" nciodm:ExtCodeID="C121041">
                    <nciodm:CDISCSynonym>CRQ02-Feel Upset, Worried or Depressed</nciodm:CDISCSynonym>
                    <nciodm:CDISCDefinition>Chronic Respiratory Questionnaire Self-Administered Standardized Format (CRQ-SAS) Follow-up Administration Version - In general, how much of the time did you feel upset, worried, or depressed during the last 2 weeks?</nciodm:CDISCDefinition>
                    <nciodm:PreferredTerm>CRQ-SAS Follow-Up Administration Version - Feel Upset, Worried or Depressed</nciodm:PreferredTerm>
                </EnumeratedItem>
                <EnumeratedItem CodedValue="CRQ02-Feeling Emotional" nciodm:ExtCodeID="C121030">
                    <nciodm:CDISCSynonym>CRQ02-Feeling Emotional</nciodm:CDISCSynonym>
                    <nciodm:CDISCDefinition>Chronic Respiratory Questionnaire Self-Administered Standardized Format (CRQ-SAS) Follow-up Administration Version - Feeling emotional such as angry or upset.</nciodm:CDISCDefinition>
                    <nciodm:PreferredTerm>CRQ-SAS Follow-Up Administration Version - Feeling Emotional</nciodm:PreferredTerm>
                </EnumeratedItem>
                <EnumeratedItem CodedValue="CRQ02-Feeling of Fear or Panic" nciodm:ExtCodeID="C121036">
                    <nciodm:CDISCSynonym>CRQ02-Feeling of Fear or Panic</nciodm:CDISCSynonym>
                    <nciodm:CDISCDefinition>Chronic Respiratory Questionnaire Self-Administered Standardized Format (CRQ-SAS) Follow-up Administration Version - How often during the last 2 weeks did you have a feeling of fear or panic when you had difficulty getting your breath?</nciodm:CDISCDefinition>
                    <nciodm:PreferredTerm>CRQ-SAS Follow-Up Administration Version - Feeling of Fear or Panic</nciodm:PreferredTerm>
                </EnumeratedItem>
                <EnumeratedItem CodedValue="CRQ02-Felt Discouraged or Down" nciodm:ExtCodeID="C121045">
                    <nciodm:CDISCSynonym>CRQ02-Felt Discouraged or Down</nciodm:CDISCSynonym>
                    <nciodm:CDISCDefinition>Chronic Respiratory Questionnaire Self-Administered Standardized Format (CRQ-SAS) Follow-up Administration Version - In general, how often during the last 2 weeks have you felt discouraged or down in the dumps?</nciodm:CDISCDefinition>
                    <nciodm:PreferredTerm>CRQ-SAS Follow-Up Administration Version - Felt Discouraged or Down</nciodm:PreferredTerm>
                </EnumeratedItem>
                <EnumeratedItem CodedValue="CRQ02-Felt Frustrated or Impatient" nciodm:ExtCodeID="C121035">
                    <nciodm:CDISCSynonym>CRQ02-Felt Frustrated or Impatient</nciodm:CDISCSynonym>
                    <nciodm:CDISCDefinition>Chronic Respiratory Questionnaire Self-Administered Standardized Format (CRQ-SAS) Follow-up Administration Version - In general, how much of the time during the last 2 weeks have you felt frustrated or impatient?</nciodm:CDISCDefinition>
                    <nciodm:PreferredTerm>CRQ-SAS Follow-Up Administration Version - Felt Frustrated or Impatient</nciodm:PreferredTerm>
                </EnumeratedItem>
                <EnumeratedItem CodedValue="CRQ02-Felt Low in Energy" nciodm:ExtCodeID="C121044">
                    <nciodm:CDISCSynonym>CRQ02-Felt Low in Energy</nciodm:CDISCSynonym>
                    <nciodm:CDISCDefinition>Chronic Respiratory Questionnaire Self-Administered Standardized Format (CRQ-SAS) Follow-up Administration Version - How often during the last 2 weeks have you felt low in energy?</nciodm:CDISCDefinition>
                    <nciodm:PreferredTerm>CRQ-SAS Follow-Up Administration Version - Felt Low in Energy</nciodm:PreferredTerm>
                </EnumeratedItem>
                <EnumeratedItem CodedValue="CRQ02-Felt Restless, Tense or Uptight" nciodm:ExtCodeID="C121049">
                    <nciodm:CDISCSynonym>CRQ02-Felt Restless, Tense or Uptight</nciodm:CDISCSynonym>
                    <nciodm:CDISCDefinition>Chronic Respiratory Questionnaire Self-Administered Standardized Format (CRQ-SAS) Follow-up Administration Version - In general, how often during the last 2 weeks have you felt restless, tense, or uptight?</nciodm:CDISCDefinition>
                    <nciodm:PreferredTerm>CRQ-SAS Follow-Up Administration Version - Felt Restless, Tense or Uptight</nciodm:PreferredTerm>
                </EnumeratedItem>
                <EnumeratedItem CodedValue="CRQ02-Felt Worn Out or Sluggish" nciodm:ExtCodeID="C121046">
                    <nciodm:CDISCSynonym>CRQ02-Felt Worn Out or Sluggish</nciodm:CDISCSynonym>
                    <nciodm:CDISCDefinition>Chronic Respiratory Questionnaire Self-Administered Standardized Format (CRQ-SAS) Follow-up Administration Version - How often during the last 2 weeks have you felt worn out or sluggish?</nciodm:CDISCDefinition>
                    <nciodm:PreferredTerm>CRQ-SAS Follow-Up Administration Version - Felt Worn Out or Sluggish</nciodm:PreferredTerm>
                </EnumeratedItem>
                <EnumeratedItem CodedValue="CRQ02-Happy, Satisfied or Pleased" nciodm:ExtCodeID="C121047">
                    <nciodm:CDISCSynonym>CRQ02-Happy, Satisfied or Pleased</nciodm:CDISCSynonym>
                    <nciodm:CDISCDefinition>Chronic Respiratory Questionnaire Self-Administered Standardized Format (CRQ-SAS) Follow-up Administration Version - How happy, satisfied, or pleased have you been with your personal life during the last 2 weeks?</nciodm:CDISCDefinition>
                    <nciodm:PreferredTerm>CRQ-SAS Follow-Up Administration Version - Happy, Satisfied or Pleased With Life</nciodm:PreferredTerm>
                </EnumeratedItem>
                <EnumeratedItem CodedValue="CRQ02-Participate in Social Activities" nciodm:ExtCodeID="C121034">
                    <nciodm:CDISCSynonym>CRQ02-Participate in Social Activities</nciodm:CDISCSynonym>
                    <nciodm:CDISCDefinition>Chronic Respiratory Questionnaire Self-Administered Standardized Format (CRQ-SAS) Follow-up Administration Version - Participating in social activities.</nciodm:CDISCDefinition>
                    <nciodm:PreferredTerm>CRQ-SAS Follow-Up Administration Version - Participate in Social Activities</nciodm:PreferredTerm>
                </EnumeratedItem>
                <EnumeratedItem CodedValue="CRQ02-Performing Chores" nciodm:ExtCodeID="C121033">
                    <nciodm:CDISCSynonym>CRQ02-Performing Chores</nciodm:CDISCSynonym>
                    <nciodm:CDISCDefinition>Chronic Respiratory Questionnaire Self-Administered Standardized Format (CRQ-SAS) Follow-up Administration Version - Performing chores.</nciodm:CDISCDefinition>
                    <nciodm:PreferredTerm>CRQ-SAS Follow-Up Administration Version - Performing Chores</nciodm:PreferredTerm>
                </EnumeratedItem>
                <EnumeratedItem CodedValue="CRQ02-Take Care of Basic Needs" nciodm:ExtCodeID="C121031">
                    <nciodm:CDISCSynonym>CRQ02-Take Care of Basic Needs</nciodm:CDISCSynonym>
                    <nciodm:CDISCDefinition>Chronic Respiratory Questionnaire Self-Administered Standardized Format (CRQ-SAS) Follow-up Administration Version - Taking care of your basic needs.</nciodm:CDISCDefinition>
                    <nciodm:PreferredTerm>CRQ-SAS Follow-Up Administration Version - Take Care of Basic Needs</nciodm:PreferredTerm>
                </EnumeratedItem>
                <EnumeratedItem CodedValue="CRQ02-Walking" nciodm:ExtCodeID="C121032">
                    <nciodm:CDISCSynonym>CRQ02-Walking</nciodm:CDISCSynonym>
                    <nciodm:CDISCDefinition>Chronic Respiratory Questionnaire Self-Administered Standardized Format (CRQ-SAS) Follow-up Administration Version - Walking.</nciodm:CDISCDefinition>
                    <nciodm:PreferredTerm>CRQ-SAS Follow-Up Administration Version - Walking</nciodm:PreferredTerm>
                </EnumeratedItem>
                <nciodm:CDISCSubmissionValue>CRQ02TN</nciodm:CDISCSubmissionValue>
                <nciodm:CDISCSynonym>Chronic Respiratory Questionnaire Self-Administered Standardized Format Follow-Up Administration Version Questionnaire Test Name</nciodm:CDISCSynonym>
                <nciodm:PreferredTerm>CDISC Questionnaire CRQ-SAS Follow-Up Administration Version Test Name Terminology</nciodm:PreferredTerm>
            </CodeList>
            
