<CodeList xmlns="http://www.cdisc.org/ns/odm/v1.3" xmlns:nciodm="http://ncicb.nci.nih.gov/xml/odm/EVS/CDISC" xmlns:xs="http://www.w3.org/2001/XMLSchema-instance" OID="CL.C119013.OEFOCUS" Name="Ophthalmic Focus of Study Specific Interest" DataType="text" nciodm:ExtCodeID="C119013" nciodm:CodeListExtensible="No">
                <Description>
                    <TranslatedText xml:lang="en">Terminology relevant to the identification of a focus of ophthalmic observations.</TranslatedText>
                </Description>
                <EnumeratedItem CodedValue="OD" nciodm:ExtCodeID="C119333">
                    <nciodm:CDISCDefinition>The eye positioned in the right orbit, Oculus Dexter.</nciodm:CDISCDefinition>
                    <nciodm:PreferredTerm>Right Eye</nciodm:PreferredTerm>
                </EnumeratedItem>
                <EnumeratedItem CodedValue="OS" nciodm:ExtCodeID="C119334">
                    <nciodm:CDISCDefinition>The eye positioned in the left orbit, Oculus Sinister.</nciodm:CDISCDefinition>
                    <nciodm:PreferredTerm>Left Eye</nciodm:PreferredTerm>
                </EnumeratedItem>
                <EnumeratedItem CodedValue="OU" nciodm:ExtCodeID="C119335">
                    <nciodm:CDISCDefinition>Of or pertaining to both the left and right eyes, Oculus Uterque.</nciodm:CDISCDefinition>
                    <nciodm:PreferredTerm>Both Eyes</nciodm:PreferredTerm>
                </EnumeratedItem>
                <nciodm:CDISCSubmissionValue>OEFOCUS</nciodm:CDISCSubmissionValue>
                <nciodm:CDISCSynonym>Ophthalmic Focus of Study Specific Interest</nciodm:CDISCSynonym>
                <nciodm:PreferredTerm>CDISC SDTM Ophthalmic Focus of Study Specific Interest Terminology</nciodm:PreferredTerm>
            </CodeList>
            
