<CodeList xmlns="http://www.cdisc.org/ns/odm/v1.3" xmlns:nciodm="http://ncicb.nci.nih.gov/xml/odm/EVS/CDISC" xmlns:xs="http://www.w3.org/2001/XMLSchema-instance" OID="CL.C122007.CPFATSCD" Name="COPD Findings About Test Code" DataType="text" nciodm:ExtCodeID="C122007" nciodm:CodeListExtensible="Yes">
                <Description>
                    <TranslatedText xml:lang="en">Terminology relevant to the test codes that describe findings about a COPD event or intervention.</TranslatedText>
                </Description>
                <EnumeratedItem CodedValue="CUMEXP" nciodm:ExtCodeID="C94596">
                    <nciodm:CDISCSynonym>Cumulative Exposure</nciodm:CDISCSynonym>
                    <nciodm:CDISCDefinition>The total amount that a subject is exposed to over time.</nciodm:CDISCDefinition>
                    <nciodm:PreferredTerm>Cumulative Exposure</nciodm:PreferredTerm>
                </EnumeratedItem>
                <nciodm:CDISCSubmissionValue>CPFATSCD</nciodm:CDISCSubmissionValue>
                <nciodm:CDISCSynonym>COPD Findings About Test Code</nciodm:CDISCSynonym>
                <nciodm:PreferredTerm>CDISC SDTM COPD Findings About Test Code Terminology</nciodm:PreferredTerm>
            </CodeList>
            
