<CodeList xmlns="http://www.cdisc.org/ns/odm/v1.3" xmlns:nciodm="http://ncicb.nci.nih.gov/xml/odm/EVS/CDISC" xmlns:xs="http://www.w3.org/2001/XMLSchema-instance" OID="CL.C135012.AJCCGRD" Name="AJCC Tumor Grade Response" DataType="text" nciodm:ExtCodeID="C135012" nciodm:CodeListExtensible="No">
                <Description>
                    <TranslatedText xml:lang="en">Terminology relevant to the American Joint Committee on Cancer (AJCC) tumor grading system responses.</TranslatedText>
                </Description>
                <EnumeratedItem CodedValue="GRADE 1" nciodm:ExtCodeID="C28077">
                    <nciodm:CDISCSynonym>G1</nciodm:CDISCSynonym>
                    <nciodm:CDISCDefinition>A morphologic qualifier by the American Joint Cancer Committee (AJCC) indicating that a cancerous lesion is well differentiated. (American Joint Committee on Cancer. AJCC Cancer Staging Manual. 7th ed. New York, NY: Springer; 2010.)</nciodm:CDISCDefinition>
                    <nciodm:PreferredTerm>Grade 1</nciodm:PreferredTerm>
                </EnumeratedItem>
                <EnumeratedItem CodedValue="GRADE 2" nciodm:ExtCodeID="C28078">
                    <nciodm:CDISCSynonym>G2</nciodm:CDISCSynonym>
                    <nciodm:CDISCDefinition>A morphologic qualifier by the American Joint Cancer Committee (AJCC) indicating that a cancerous lesion is moderately differentiated. (American Joint Committee on Cancer. AJCC Cancer Staging Manual. 7th ed. New York, NY: Springer; 2010.)</nciodm:CDISCDefinition>
                    <nciodm:PreferredTerm>Grade 2</nciodm:PreferredTerm>
                </EnumeratedItem>
                <EnumeratedItem CodedValue="GRADE 3" nciodm:ExtCodeID="C28079">
                    <nciodm:CDISCSynonym>G3</nciodm:CDISCSynonym>
                    <nciodm:CDISCDefinition>A morphologic qualifier by the American Joint Cancer Committee (AJCC) indicating that a cancerous lesion is poorly differentiated. (American Joint Committee on Cancer. AJCC Cancer Staging Manual. 7th ed. New York, NY: Springer; 2010.)</nciodm:CDISCDefinition>
                    <nciodm:PreferredTerm>Grade 3</nciodm:PreferredTerm>
                </EnumeratedItem>
                <EnumeratedItem CodedValue="GRADE 4" nciodm:ExtCodeID="C28082">
                    <nciodm:CDISCSynonym>G4</nciodm:CDISCSynonym>
                    <nciodm:CDISCDefinition>A morphologic qualifier by the American Joint Cancer Committee (AJCC) indicating that a cancerous lesion is undifferentiated. (American Joint Committee on Cancer. AJCC Cancer Staging Manual. 7th ed. New York, NY: Springer; 2010.)</nciodm:CDISCDefinition>
                    <nciodm:PreferredTerm>Grade 4</nciodm:PreferredTerm>
                </EnumeratedItem>
                <EnumeratedItem CodedValue="GRADE X" nciodm:ExtCodeID="C113730">
                    <nciodm:CDISCSynonym>GX</nciodm:CDISCSynonym>
                    <nciodm:CDISCDefinition>A morphologic qualifier by the American Joint Cancer Committee (AJCC) indicating that the grade of a cancerous lesion cannot be assessed. (American Joint Committee on Cancer. AJCC Cancer Staging Manual. 7th ed. New York, NY: Springer; 2010.)</nciodm:CDISCDefinition>
                    <nciodm:PreferredTerm>Grade X</nciodm:PreferredTerm>
                </EnumeratedItem>
                <nciodm:CDISCSubmissionValue>AJCCGRD</nciodm:CDISCSubmissionValue>
                <nciodm:CDISCSynonym>AJCC Tumor Grade Response</nciodm:CDISCSynonym>
                <nciodm:PreferredTerm>CDISC SDTM AJCC Tumor Grade Response Terminology</nciodm:PreferredTerm>
            </CodeList>
            
