<CodeList xmlns="http://www.cdisc.org/ns/odm/v1.3" xmlns:nciodm="http://ncicb.nci.nih.gov/xml/odm/EVS/CDISC" xmlns:xs="http://www.w3.org/2001/XMLSchema-instance" OID="CL.C124687.TMT01TN" Name="Trail Making Test Functional Test Test Name" DataType="text" nciodm:ExtCodeID="C124687" nciodm:CodeListExtensible="No">
                <Description>
                    <TranslatedText xml:lang="en">Trail Making Test test name.</TranslatedText>
                </Description>
                <EnumeratedItem CodedValue="TMT01-Time to Complete Trails A" nciodm:ExtCodeID="C124780">
                    <nciodm:CDISCSynonym>TMT01-Time to Complete Trails A</nciodm:CDISCSynonym>
                    <nciodm:CDISCDefinition>Trail Making Test - Time (in seconds) to complete Trails A.</nciodm:CDISCDefinition>
                    <nciodm:PreferredTerm>TMT - Time to Complete Trails A</nciodm:PreferredTerm>
                </EnumeratedItem>
                <EnumeratedItem CodedValue="TMT01-Time to Complete Trails B" nciodm:ExtCodeID="C124781">
                    <nciodm:CDISCSynonym>TMT01-Time to Complete Trails B</nciodm:CDISCSynonym>
                    <nciodm:CDISCDefinition>Trail Making Test - Time (in seconds) to complete Trails B.</nciodm:CDISCDefinition>
                    <nciodm:PreferredTerm>TMT - Time to Complete Trails B</nciodm:PreferredTerm>
                </EnumeratedItem>
                <nciodm:CDISCSubmissionValue>TMT01TN</nciodm:CDISCSubmissionValue>
                <nciodm:CDISCSynonym>Trail Making Test Functional Test Test Name</nciodm:CDISCSynonym>
                <nciodm:PreferredTerm>CDISC Functional Test TMT Test Name Terminology</nciodm:PreferredTerm>
            </CodeList>
            
