<CodeList xmlns="http://www.cdisc.org/ns/odm/v1.3" xmlns:nciodm="http://ncicb.nci.nih.gov/xml/odm/EVS/CDISC" xmlns:xs="http://www.w3.org/2001/XMLSchema-instance" OID="CL.C125744.ED1TN" Name="Expanded Disability Rating Scale - Postacute Interview Caregiver Version Questionnaire Test Name" DataType="text" nciodm:ExtCodeID="C125744" nciodm:CodeListExtensible="No">
                <Description>
                    <TranslatedText xml:lang="en">Expanded Disability Rating Scale - Postacute Interview Caregiver Version test name.</TranslatedText>
                </Description>
                <EnumeratedItem CodedValue="ED1-Able to Communicate Clearly" nciodm:ExtCodeID="C125773">
                    <nciodm:CDISCSynonym>ED1-Able to Communicate Clearly</nciodm:CDISCSynonym>
                    <nciodm:CDISCDefinition>Expanded Disability Rating Scale - Postacute Interview Caregiver Version - Is [name] able to communicate with you in a way that you and others clearly understand?</nciodm:CDISCDefinition>
                    <nciodm:PreferredTerm>Expanded DRS-PI Caregiver Version - Able to Communicate Clearly</nciodm:PreferredTerm>
                </EnumeratedItem>
                <EnumeratedItem CodedValue="ED1-Can Dress/Groom Independently" nciodm:ExtCodeID="C125784">
                    <nciodm:CDISCSynonym>ED1-Can Dress/Groom Independently</nciodm:CDISCSynonym>
                    <nciodm:CDISCDefinition>Expanded Disability Rating Scale - Postacute Interview Caregiver Version - Can [name] dress and groom him/herself independently and appropriately or direct someone else in these activities without help or reminders?</nciodm:CDISCDefinition>
                    <nciodm:PreferredTerm>Expanded DRS-PI Caregiver Version - Can Dress and Groom Self Independently</nciodm:PreferredTerm>
                </EnumeratedItem>
                <EnumeratedItem CodedValue="ED1-Correct Date and Time" nciodm:ExtCodeID="C125775">
                    <nciodm:CDISCSynonym>ED1-Correct Date and Time</nciodm:CDISCSynonym>
                    <nciodm:CDISCDefinition>Expanded Disability Rating Scale - Postacute Interview Caregiver Version - Is [name] able to give the correct date and time within a few seconds of being asked?</nciodm:CDISCDefinition>
                    <nciodm:PreferredTerm>Expanded DRS-PI Caregiver Version - Give Correct Date and Time When Asked</nciodm:PreferredTerm>
                </EnumeratedItem>
                <EnumeratedItem CodedValue="ED1-Feed Independently Without Help" nciodm:ExtCodeID="C125778">
                    <nciodm:CDISCSynonym>ED1-Feed Independently Without Help</nciodm:CDISCSynonym>
                    <nciodm:CDISCDefinition>Expanded Disability Rating Scale - Postacute Interview Caregiver Version - Can [name] feed him/herself independently or manage tube feedings appropriately without help or reminders?</nciodm:CDISCDefinition>
                    <nciodm:PreferredTerm>Expanded DRS-PI Caregiver Version - Feed Independently Without Help</nciodm:PreferredTerm>
                </EnumeratedItem>
                <EnumeratedItem CodedValue="ED1-Few Words or Random Answers/Shouting" nciodm:ExtCodeID="C125776">
                    <nciodm:CDISCSynonym>ED1-Few Words or Random Answers/Shouting</nciodm:CDISCSynonym>
                    <nciodm:CDISCDefinition>Expanded Disability Rating Scale - Postacute Interview Caregiver Version - Does [name] have only a few words that [s/he] uses over and over or does [s/he] express him/herself only through random answers, shouting or swearing?</nciodm:CDISCDefinition>
                    <nciodm:PreferredTerm>Expanded DRS-PI Caregiver Version - Use Few Words or Random Shouting</nciodm:PreferredTerm>
                </EnumeratedItem>
                <EnumeratedItem CodedValue="ED1-Function Completely Independently" nciodm:ExtCodeID="C125788">
                    <nciodm:CDISCSynonym>ED1-Function Completely Independently</nciodm:CDISCSynonym>
                    <nciodm:CDISCDefinition>Expanded Disability Rating Scale - Postacute Interview Caregiver Version - Does [name] function completely independently? That is, [s/he] does not require any physical assistance, supervision, equipment, devices or reminders for cognitive, social, behavioral, emotional, and physical function?</nciodm:CDISCDefinition>
                    <nciodm:PreferredTerm>Expanded DRS-PI Caregiver Version - Function Completely Independently</nciodm:PreferredTerm>
                </EnumeratedItem>
                <EnumeratedItem CodedValue="ED1-How They Communicate Primarily" nciodm:ExtCodeID="C125774">
                    <nciodm:CDISCSynonym>ED1-How They Communicate Primarily</nciodm:CDISCSynonym>
                    <nciodm:CDISCDefinition>Expanded Disability Rating Scale - Postacute Interview Caregiver Version - How do they communicate primarily?</nciodm:CDISCDefinition>
                    <nciodm:PreferredTerm>Expanded DRS-PI Caregiver Version - How They Communicate Primarily</nciodm:PreferredTerm>
                </EnumeratedItem>
                <EnumeratedItem CodedValue="ED1-Independent Work/Social Situations" nciodm:ExtCodeID="C125796">
                    <nciodm:CDISCSynonym>ED1-Independent Work/Social Situations</nciodm:CDISCSynonym>
                    <nciodm:CDISCDefinition>Expanded Disability Rating Scale - Postacute Interview Caregiver Version - Can [name] function with complete independence in work or social situations?</nciodm:CDISCDefinition>
                    <nciodm:PreferredTerm>Expanded DRS-PI Caregiver Version - Function With Independent Work or Social Situations</nciodm:PreferredTerm>
                </EnumeratedItem>
                <EnumeratedItem CodedValue="ED1-Keep Track of Time/Schedules" nciodm:ExtCodeID="C125798">
                    <nciodm:CDISCSynonym>ED1-Keep Track of Time/Schedules</nciodm:CDISCSynonym>
                    <nciodm:CDISCDefinition>Expanded Disability Rating Scale - Postacute Interview Caregiver Version - Can [name] keep track of time, schedules and appointments?</nciodm:CDISCDefinition>
                    <nciodm:PreferredTerm>Expanded DRS-PI Caregiver Version - Keep Track of Time</nciodm:PreferredTerm>
                </EnumeratedItem>
                <EnumeratedItem CodedValue="ED1-Know How to Bathe/Wash" nciodm:ExtCodeID="C125785">
                    <nciodm:CDISCSynonym>ED1-Know How to Bathe/Wash</nciodm:CDISCSynonym>
                    <nciodm:CDISCDefinition>Expanded Disability Rating Scale - Postacute Interview Caregiver Version - Does [s/he] know how to bathe and wash?</nciodm:CDISCDefinition>
                    <nciodm:PreferredTerm>Expanded DRS-PI Caregiver Version - Know How to Bathe and Wash</nciodm:PreferredTerm>
                </EnumeratedItem>
                <EnumeratedItem CodedValue="ED1-Know Meal Times" nciodm:ExtCodeID="C125780">
                    <nciodm:CDISCSynonym>ED1-Know Meal Times</nciodm:CDISCSynonym>
                    <nciodm:CDISCDefinition>Expanded Disability Rating Scale - Postacute Interview Caregiver Version - Does [name] know when meal or feeding times are?</nciodm:CDISCDefinition>
                    <nciodm:PreferredTerm>Expanded DRS-PI Caregiver Version - Know Meal Times</nciodm:PreferredTerm>
                </EnumeratedItem>
                <EnumeratedItem CodedValue="ED1-Know When to Use Toilet" nciodm:ExtCodeID="C125783">
                    <nciodm:CDISCSynonym>ED1-Know When to Use Toilet</nciodm:CDISCSynonym>
                    <nciodm:CDISCDefinition>Expanded Disability Rating Scale - Postacute Interview Caregiver Version - Does [name] know when to use the toilet or to conduct bowel and bladder management?</nciodm:CDISCDefinition>
                    <nciodm:PreferredTerm>Expanded DRS-PI Caregiver Version - Know When to Use Toilet</nciodm:PreferredTerm>
                </EnumeratedItem>
                <EnumeratedItem CodedValue="ED1-Manage Clothing When Toileting" nciodm:ExtCodeID="C125782">
                    <nciodm:CDISCSynonym>ED1-Manage Clothing When Toileting</nciodm:CDISCSynonym>
                    <nciodm:CDISCDefinition>Expanded Disability Rating Scale - Postacute Interview Caregiver Version - Does [name] understand how to manage their clothing or special equipment when toileting or in bowel and bladder management?</nciodm:CDISCDefinition>
                    <nciodm:PreferredTerm>Expanded DRS-PI Caregiver Version - Manage Clothing When Toileting</nciodm:PreferredTerm>
                </EnumeratedItem>
                <EnumeratedItem CodedValue="ED1-Moan/Groan/Sounds Not Understandable" nciodm:ExtCodeID="C125777">
                    <nciodm:CDISCSynonym>ED1-Moan/Groan/Sounds Not Understandable</nciodm:CDISCSynonym>
                    <nciodm:CDISCDefinition>Expanded Disability Rating Scale - Postacute Interview Caregiver Version - Does [name] only moan, groan or make other sounds that are not understandable?</nciodm:CDISCDefinition>
                    <nciodm:PreferredTerm>Expanded DRS-PI Caregiver Version - Make Sounds Not Understandable</nciodm:PreferredTerm>
                </EnumeratedItem>
                <EnumeratedItem CodedValue="ED1-Need 24-Hour Care" nciodm:ExtCodeID="C125795">
                    <nciodm:CDISCSynonym>ED1-Need 24-Hour Care</nciodm:CDISCSynonym>
                    <nciodm:CDISCDefinition>Expanded Disability Rating Scale - Postacute Interview Caregiver Version - Does [s/he] need 24-hour care and is not able to help with their own care at all?</nciodm:CDISCDefinition>
                    <nciodm:PreferredTerm>Expanded DRS-PI Caregiver Version - Need 24-Hour Care</nciodm:PreferredTerm>
                </EnumeratedItem>
                <EnumeratedItem CodedValue="ED1-Need a Helper Always Close By" nciodm:ExtCodeID="C125793">
                    <nciodm:CDISCSynonym>ED1-Need a Helper Always Close By</nciodm:CDISCSynonym>
                    <nciodm:CDISCDefinition>Expanded Disability Rating Scale - Postacute Interview Caregiver Version - Does [s/he] take care of some of their needs but also need a helper who is always close by?</nciodm:CDISCDefinition>
                    <nciodm:PreferredTerm>Expanded DRS-PI Caregiver Version - Need a Helper Always Close By</nciodm:PreferredTerm>
                </EnumeratedItem>
                <EnumeratedItem CodedValue="ED1-Need Help With All Major Activities" nciodm:ExtCodeID="C125794">
                    <nciodm:CDISCSynonym>ED1-Need Help With All Major Activities</nciodm:CDISCSynonym>
                    <nciodm:CDISCDefinition>Expanded Disability Rating Scale - Postacute Interview Caregiver Version - Does [s/he] need help with all major activities and the assistance of another person all the time?</nciodm:CDISCDefinition>
                    <nciodm:PreferredTerm>Expanded DRS-PI Caregiver Version - Need Help With All Major Activities</nciodm:PreferredTerm>
                </EnumeratedItem>
                <EnumeratedItem CodedValue="ED1-Perform Jobs, Manage Home/School" nciodm:ExtCodeID="C125799">
                    <nciodm:CDISCSynonym>ED1-Perform Jobs, Manage Home/School</nciodm:CDISCSynonym>
                    <nciodm:CDISCDefinition>Expanded Disability Rating Scale - Postacute Interview Caregiver Version - How certain are you that [name] can perform in a wide variety of jobs of [his/her] choosing or manage a home independently or participate in school full-time?</nciodm:CDISCDefinition>
                    <nciodm:PreferredTerm>Expanded DRS-PI Caregiver Version - Perform Jobs or Manage a Home Independently</nciodm:PreferredTerm>
                </EnumeratedItem>
                <EnumeratedItem CodedValue="ED1-Require Assistance Managing Emotions" nciodm:ExtCodeID="C125792">
                    <nciodm:CDISCSynonym>ED1-Require Assistance Managing Emotions</nciodm:CDISCSynonym>
                    <nciodm:CDISCDefinition>Expanded Disability Rating Scale - Postacute Interview Caregiver Version - Does [s/he] require assistance from another person to manage emotions and behavior?</nciodm:CDISCDefinition>
                    <nciodm:PreferredTerm>Expanded DRS-PI Caregiver Version - Require Assistance Managing Emotions</nciodm:PreferredTerm>
                </EnumeratedItem>
                <EnumeratedItem CodedValue="ED1-Require Assistance Thinking Tasks" nciodm:ExtCodeID="C125791">
                    <nciodm:CDISCSynonym>ED1-Require Assistance Thinking Tasks</nciodm:CDISCSynonym>
                    <nciodm:CDISCDefinition>Expanded Disability Rating Scale - Postacute Interview Caregiver Version - Does [s/he] require assistance from another person in tasks that require thinking abilities?</nciodm:CDISCDefinition>
                    <nciodm:PreferredTerm>Expanded DRS-PI Caregiver Version - Require Assistance Thinking Tasks</nciodm:PreferredTerm>
                </EnumeratedItem>
                <EnumeratedItem CodedValue="ED1-Require Physical Assistance" nciodm:ExtCodeID="C125790">
                    <nciodm:CDISCSynonym>ED1-Require Physical Assistance</nciodm:CDISCSynonym>
                    <nciodm:CDISCDefinition>Expanded Disability Rating Scale - Postacute Interview Caregiver Version - Does [name] require physical assistance from another person to meet daily needs?</nciodm:CDISCDefinition>
                    <nciodm:PreferredTerm>Expanded DRS-PI Caregiver Version - Require Physical Assistance</nciodm:PreferredTerm>
                </EnumeratedItem>
                <EnumeratedItem CodedValue="ED1-Require Specific Aids/Equipment" nciodm:ExtCodeID="C125789">
                    <nciodm:CDISCSynonym>ED1-Require Specific Aids/Equipment</nciodm:CDISCSynonym>
                    <nciodm:CDISCDefinition>Expanded Disability Rating Scale - Postacute Interview Caregiver Version - Does [name] REQUIRE special aids or equipment such as a brace, walker, wheelchair, memory notebook, day planner, verbal reminders, prompts, cues, or alarm watch because of a disability?</nciodm:CDISCDefinition>
                    <nciodm:PreferredTerm>Expanded DRS-PI Caregiver Version - Require Special Aids or Equipment</nciodm:PreferredTerm>
                </EnumeratedItem>
                <EnumeratedItem CodedValue="ED1-Start/Finish Grooming Activities" nciodm:ExtCodeID="C125787">
                    <nciodm:CDISCSynonym>ED1-Start/Finish Grooming Activities</nciodm:CDISCSynonym>
                    <nciodm:CDISCDefinition>Expanded Disability Rating Scale - Postacute Interview Caregiver Version - Can [s/he] start and finish these grooming activities without prompting?</nciodm:CDISCDefinition>
                    <nciodm:PreferredTerm>Expanded DRS-PI Caregiver Version - Start and Finish Grooming Activities</nciodm:PreferredTerm>
                </EnumeratedItem>
                <EnumeratedItem CodedValue="ED1-Successful With Accommodations" nciodm:ExtCodeID="C125800">
                    <nciodm:CDISCSynonym>ED1-Successful With Accommodations</nciodm:CDISCSynonym>
                    <nciodm:CDISCDefinition>Expanded Disability Rating Scale - Postacute Interview Caregiver Version - How certain are you that [name] can be successful at work, school or in home management with some reduction in the work load or with other accommodations due to disabilities?</nciodm:CDISCDefinition>
                    <nciodm:PreferredTerm>Expanded DRS-PI Caregiver Version - Successful With Accommodations</nciodm:PreferredTerm>
                </EnumeratedItem>
                <EnumeratedItem CodedValue="ED1-Successful With Limited Choices" nciodm:ExtCodeID="C125801">
                    <nciodm:CDISCSynonym>ED1-Successful With Limited Choices</nciodm:CDISCSynonym>
                    <nciodm:CDISCDefinition>Expanded Disability Rating Scale - Postacute Interview Caregiver Version - How certain are you that [name] can be successful at work, school or in home management but with limited choices in jobs or school courses due to disabilities?</nciodm:CDISCDefinition>
                    <nciodm:PreferredTerm>Expanded DRS-PI Caregiver Version - Successful With Limited Choices</nciodm:PreferredTerm>
                </EnumeratedItem>
                <EnumeratedItem CodedValue="ED1-Understand Feeding Utensils" nciodm:ExtCodeID="C125779">
                    <nciodm:CDISCSynonym>ED1-Understand Feeding Utensils</nciodm:CDISCSynonym>
                    <nciodm:CDISCDefinition>Expanded Disability Rating Scale - Postacute Interview Caregiver Version - Does [name] understand what eating or feeding utensils or equipment are for and how they should be used?</nciodm:CDISCDefinition>
                    <nciodm:PreferredTerm>Expanded DRS-PI Caregiver Version - Understand Feeding Utensils</nciodm:PreferredTerm>
                </EnumeratedItem>
                <EnumeratedItem CodedValue="ED1-Understand How to Get Dressed" nciodm:ExtCodeID="C125786">
                    <nciodm:CDISCSynonym>ED1-Understand How to Get Dressed</nciodm:CDISCSynonym>
                    <nciodm:CDISCDefinition>Expanded Disability Rating Scale - Postacute Interview Caregiver Version - Does [s/he] understand how to get dressed?</nciodm:CDISCDefinition>
                    <nciodm:PreferredTerm>Expanded DRS-PI Caregiver Version - Understand How to Get Dressed</nciodm:PreferredTerm>
                </EnumeratedItem>
                <EnumeratedItem CodedValue="ED1-Understand/Follow Directions" nciodm:ExtCodeID="C125797">
                    <nciodm:CDISCSynonym>ED1-Understand/Follow Directions</nciodm:CDISCSynonym>
                    <nciodm:CDISCDefinition>Expanded Disability Rating Scale - Postacute Interview Caregiver Version - Can [name] understand, remember, and follow directions?</nciodm:CDISCDefinition>
                    <nciodm:PreferredTerm>Expanded DRS-PI Caregiver Version - Understand and Follow Directions</nciodm:PreferredTerm>
                </EnumeratedItem>
                <EnumeratedItem CodedValue="ED1-Use Toilet Independently" nciodm:ExtCodeID="C125781">
                    <nciodm:CDISCSynonym>ED1-Use Toilet Independently</nciodm:CDISCSynonym>
                    <nciodm:CDISCDefinition>Expanded Disability Rating Scale - Postacute Interview Caregiver Version - Can [name] use the toilet or manage their bowel and bladder routine independently and appropriately without help or reminders?</nciodm:CDISCDefinition>
                    <nciodm:PreferredTerm>Expanded DRS-PI Caregiver Version - Use Toilet Independently</nciodm:PreferredTerm>
                </EnumeratedItem>
                <EnumeratedItem CodedValue="ED1-Work With Frequent Support" nciodm:ExtCodeID="C125802">
                    <nciodm:CDISCSynonym>ED1-Work With Frequent Support</nciodm:CDISCSynonym>
                    <nciodm:CDISCDefinition>Expanded Disability Rating Scale - Postacute Interview Caregiver Version - How certain are you that [name] can be able to work at home or in a special setting like a sheltered workshop in which the work is very routine and there is very frequent supervision and support?</nciodm:CDISCDefinition>
                    <nciodm:PreferredTerm>Expanded DRS-PI Caregiver Version - Work With Frequent Supervision and Support</nciodm:PreferredTerm>
                </EnumeratedItem>
                <nciodm:CDISCSubmissionValue>ED1TN</nciodm:CDISCSubmissionValue>
                <nciodm:CDISCSynonym>Expanded Disability Rating Scale - Postacute Interview Caregiver Version Questionnaire Test Name</nciodm:CDISCSynonym>
                <nciodm:PreferredTerm>CDISC Questionnaire Expanded DRS-PI Caregiver Version Test Name Terminology</nciodm:PreferredTerm>
            </CodeList>
            
