<CodeList xmlns="http://www.cdisc.org/ns/odm/v1.3" xmlns:nciodm="http://ncicb.nci.nih.gov/xml/odm/EVS/CDISC" xmlns:xs="http://www.w3.org/2001/XMLSchema-instance" OID="CL.C66741.VSTESTCD" Name="Vital Signs Test Code" DataType="text" nciodm:ExtCodeID="C66741" nciodm:CodeListExtensible="Yes">
                <Description>
                    <TranslatedText xml:lang="en">The test code given to the test that analyzes a particular set of vital signs including temperature, respiratory rate, heart rate, and blood pressure.</TranslatedText>
                </Description>
                <EnumeratedItem CodedValue="ABSKNF" nciodm:ExtCodeID="C103346">
                    <nciodm:CDISCSynonym>Abdominal Skinfold Thickness</nciodm:CDISCSynonym>
                    <nciodm:CDISCDefinition>A measurement for determining the subcutaneous fat layer thickness whereby a pinch of skin approximately five centimeters to the right of the umbilicus is measured using calipers. (NCI)</nciodm:CDISCDefinition>
                    <nciodm:PreferredTerm>Abdominal Skinfold Thickness</nciodm:PreferredTerm>
                </EnumeratedItem>
                <EnumeratedItem CodedValue="BMI" nciodm:ExtCodeID="C16358">
                    <nciodm:CDISCSynonym>Body Mass Index</nciodm:CDISCSynonym>
                    <nciodm:CDISCDefinition>A general indicator of the body fat an individual is carrying based upon the ratio of weight to height. (NCI)</nciodm:CDISCDefinition>
                    <nciodm:PreferredTerm>Body Mass Index</nciodm:PreferredTerm>
                </EnumeratedItem>
                <EnumeratedItem CodedValue="BODLNGTH" nciodm:ExtCodeID="C81298">
                    <nciodm:CDISCSynonym>Body Length</nciodm:CDISCSynonym>
                    <nciodm:CDISCDefinition>The linear extent in space from one end of the body to the other end, or the extent of the body from beginning to end.</nciodm:CDISCDefinition>
                    <nciodm:PreferredTerm>Total Body Length</nciodm:PreferredTerm>
                </EnumeratedItem>
                <EnumeratedItem CodedValue="BODYFATM" nciodm:ExtCodeID="C122232">
                    <nciodm:CDISCSynonym>Body Fat Measurement</nciodm:CDISCSynonym>
                    <nciodm:CDISCDefinition>A measurement of the total fat mass within the subject's body. (NCI)</nciodm:CDISCDefinition>
                    <nciodm:PreferredTerm>Body Fat Measurement</nciodm:PreferredTerm>
                </EnumeratedItem>
                <EnumeratedItem CodedValue="BSA" nciodm:ExtCodeID="C25157">
                    <nciodm:CDISCSynonym>Body Surface Area</nciodm:CDISCSynonym>
                    <nciodm:CDISCDefinition>A measure of the 2-dimensional extent of the body surface (i.e., the skin). Body surface area (BSA) can be calculated by mathematical formula or from a chart that relates height to weight. BSA is often an important factor in dosing. (NCI)</nciodm:CDISCDefinition>
                    <nciodm:PreferredTerm>Body Surface Area</nciodm:PreferredTerm>
                </EnumeratedItem>
                <EnumeratedItem CodedValue="DIABP" nciodm:ExtCodeID="C25299">
                    <nciodm:CDISCSynonym>Diastolic Blood Pressure</nciodm:CDISCSynonym>
                    <nciodm:CDISCDefinition>The blood pressure after the contraction of the heart while the chambers of the heart refill with blood. (NCI)</nciodm:CDISCDefinition>
                    <nciodm:PreferredTerm>Diastolic Blood Pressure</nciodm:PreferredTerm>
                </EnumeratedItem>
                <EnumeratedItem CodedValue="FARMCIR" nciodm:ExtCodeID="C100946">
                    <nciodm:CDISCSynonym>Forearm Circumference</nciodm:CDISCSynonym>
                    <nciodm:CDISCDefinition>The distance around an individual's forearm.</nciodm:CDISCDefinition>
                    <nciodm:PreferredTerm>Forearm Circumference</nciodm:PreferredTerm>
                </EnumeratedItem>
                <EnumeratedItem CodedValue="FRMSIZE" nciodm:ExtCodeID="C49680">
                    <nciodm:CDISCSynonym>Body Frame Size</nciodm:CDISCSynonym>
                    <nciodm:CDISCDefinition>The categorization of a person's body frame into small, medium and large based on the measurement of wrist circumference or the breadth of the elbow. (NCI)</nciodm:CDISCDefinition>
                    <nciodm:PreferredTerm>Body Frame Size</nciodm:PreferredTerm>
                </EnumeratedItem>
                <EnumeratedItem CodedValue="HDCIRC" nciodm:ExtCodeID="C81255">
                    <nciodm:CDISCSynonym>Head Circumference</nciodm:CDISCSynonym>
                    <nciodm:CDISCDefinition>A circumferential measurement of the head at the widest point.</nciodm:CDISCDefinition>
                    <nciodm:PreferredTerm>Head Circumference</nciodm:PreferredTerm>
                </EnumeratedItem>
                <EnumeratedItem CodedValue="HEIGHT" nciodm:ExtCodeID="C25347">
                    <nciodm:CDISCSynonym>Height</nciodm:CDISCSynonym>
                    <nciodm:CDISCDefinition>The vertical measurement or distance from the base to the top of an object; the vertical dimension of extension. (NCI)</nciodm:CDISCDefinition>
                    <nciodm:PreferredTerm>Height</nciodm:PreferredTerm>
                </EnumeratedItem>
                <EnumeratedItem CodedValue="HIPCIR" nciodm:ExtCodeID="C100947">
                    <nciodm:CDISCSynonym>Hip Circumference</nciodm:CDISCSynonym>
                    <nciodm:CDISCDefinition>The distance around an individual's pelvic area or hips.</nciodm:CDISCDefinition>
                    <nciodm:PreferredTerm>Hip Circumference</nciodm:PreferredTerm>
                </EnumeratedItem>
                <EnumeratedItem CodedValue="HR" nciodm:ExtCodeID="C49677">
                    <nciodm:CDISCSynonym>Heart Rate</nciodm:CDISCSynonym>
                    <nciodm:CDISCDefinition>The number of heartbeats per unit of time, usually expressed as beats per minute. (NCI)</nciodm:CDISCDefinition>
                    <nciodm:PreferredTerm>Heart Rate</nciodm:PreferredTerm>
                </EnumeratedItem>
                <EnumeratedItem CodedValue="IDEALWT" nciodm:ExtCodeID="C117976">
                    <nciodm:CDISCSynonym>Ideal Body Weight</nciodm:CDISCSynonym>
                    <nciodm:CDISCDefinition>A person's optimum weight as calculated by a standard methodology.</nciodm:CDISCDefinition>
                    <nciodm:PreferredTerm>Ideal Body Weight</nciodm:PreferredTerm>
                </EnumeratedItem>
                <EnumeratedItem CodedValue="KNEEHEEL" nciodm:ExtCodeID="C84372">
                    <nciodm:CDISCSynonym>Knee to Heel Length</nciodm:CDISCSynonym>
                    <nciodm:CDISCDefinition>A measurement of the length of the lower leg from the top of the knee to the bottom of the heel. This measurement may be taken with a knemometer or calipers. (NCI)</nciodm:CDISCDefinition>
                    <nciodm:PreferredTerm>Knee to Heel Length Measurement</nciodm:PreferredTerm>
                </EnumeratedItem>
                <EnumeratedItem CodedValue="LBM" nciodm:ExtCodeID="C71258">
                    <nciodm:CDISCSynonym>Lean Body Mass</nciodm:CDISCSynonym>
                    <nciodm:CDISCDefinition>The weight of all organs and tissue in an individual less the weight of the individual's body fat.</nciodm:CDISCDefinition>
                    <nciodm:PreferredTerm>Lean Body Mass</nciodm:PreferredTerm>
                </EnumeratedItem>
                <EnumeratedItem CodedValue="MAP" nciodm:ExtCodeID="C49679">
                    <nciodm:CDISCSynonym>Mean Arterial Pressure</nciodm:CDISCSynonym>
                    <nciodm:CDISCDefinition>The mean pressure of the blood within the arterial circulation. The arterial pressure may be directly measured by insertion of an intra-arterial catheter connected to a transducer. The mean arterial pressure (MAP) can be calculated by subsequent analysis of the waveform. MAP can be approximated without an invasive procedure using the following formula: diastolic pressure plus 1/3 of the pulse pressure, where pulse pressure is systolic pressure - diastolic pressure. (NCI)</nciodm:CDISCDefinition>
                    <nciodm:PreferredTerm>Mean Arterial Pressure</nciodm:PreferredTerm>
                </EnumeratedItem>
                <EnumeratedItem CodedValue="MUARMCIR" nciodm:ExtCodeID="C124475">
                    <nciodm:CDISCSynonym>Mid-Upper Arm Circumference</nciodm:CDISCSynonym>
                    <nciodm:CDISCDefinition>The distance around an individual's upper arm, at the widest point.</nciodm:CDISCDefinition>
                    <nciodm:PreferredTerm>Mid-Upper Arm Circumference</nciodm:PreferredTerm>
                </EnumeratedItem>
                <EnumeratedItem CodedValue="OXYSAT" nciodm:ExtCodeID="C60832">
                    <nciodm:CDISCSynonym>Oxygen Saturation</nciodm:CDISCSynonym>
                    <nciodm:CDISCDefinition>A measurement of the oxygen-hemoglobin saturation of a volume of blood.</nciodm:CDISCDefinition>
                    <nciodm:PreferredTerm>Oxygen Saturation Measurement</nciodm:PreferredTerm>
                </EnumeratedItem>
                <EnumeratedItem CodedValue="PULSE" nciodm:ExtCodeID="C49676">
                    <nciodm:CDISCSynonym>Pulse Rate</nciodm:CDISCSynonym>
                    <nciodm:CDISCDefinition>The rate of the pulse as observed in an artery, expressed as beats per minute. It can be measured at several anatomical sites, including the wrist, neck, temple, groin, behind the knees, or on top of the foot. (NCI)</nciodm:CDISCDefinition>
                    <nciodm:PreferredTerm>Pulse Rate</nciodm:PreferredTerm>
                </EnumeratedItem>
                <EnumeratedItem CodedValue="PULSEPR" nciodm:ExtCodeID="C100945">
                    <nciodm:CDISCSynonym>Pulse Pressure</nciodm:CDISCSynonym>
                    <nciodm:CDISCDefinition>The change in systolic to diastolic pressure which produces a pulse.</nciodm:CDISCDefinition>
                    <nciodm:PreferredTerm>Pulse Pressure</nciodm:PreferredTerm>
                </EnumeratedItem>
                <EnumeratedItem CodedValue="RESP" nciodm:ExtCodeID="C49678">
                    <nciodm:CDISCSynonym>Respiratory Rate</nciodm:CDISCSynonym>
                    <nciodm:CDISCDefinition>The rate of breathing (inhalation and exhalation) measured within in a unit time, usually expressed as breaths per minute. (NCI)</nciodm:CDISCDefinition>
                    <nciodm:PreferredTerm>Respiratory Rate</nciodm:PreferredTerm>
                </EnumeratedItem>
                <EnumeratedItem CodedValue="SAD" nciodm:ExtCodeID="C87054">
                    <nciodm:CDISCSynonym>Sagittal Abdominal Diameter</nciodm:CDISCSynonym>
                    <nciodm:CDISCDefinition>A standard measure of visceral obesity, or abdominal fat, which is measured from the patient's back to upper abdomen between the bottom of the rib cage and the top of the pelvic area. This measurement may be taken with the patient standing or in the supine position. (NCI)</nciodm:CDISCDefinition>
                    <nciodm:PreferredTerm>Sagittal Abdominal Diameter</nciodm:PreferredTerm>
                </EnumeratedItem>
                <EnumeratedItem CodedValue="SSSKNF" nciodm:ExtCodeID="C98785">
                    <nciodm:CDISCSynonym>Subscapular Skinfold Thickness</nciodm:CDISCSynonym>
                    <nciodm:CDISCDefinition>A measurement of the thickness of a pinch of skin situated below or on the underside of the scapula. (NCI)</nciodm:CDISCDefinition>
                    <nciodm:PreferredTerm>Subscapular Skinfold Thickness</nciodm:PreferredTerm>
                </EnumeratedItem>
                <EnumeratedItem CodedValue="SYSBP" nciodm:ExtCodeID="C25298">
                    <nciodm:CDISCSynonym>Systolic Blood Pressure</nciodm:CDISCSynonym>
                    <nciodm:CDISCDefinition>The blood pressure during the contraction of the left ventricle of the heart. (NCI)</nciodm:CDISCDefinition>
                    <nciodm:PreferredTerm>Systolic Blood Pressure</nciodm:PreferredTerm>
                </EnumeratedItem>
                <EnumeratedItem CodedValue="TBW" nciodm:ExtCodeID="C104622">
                    <nciodm:CDISCSynonym>Total Body Water</nciodm:CDISCSynonym>
                    <nciodm:CDISCDefinition>A measurement of the quantity of water within the body, including both the intracellular and extracellular compartments.</nciodm:CDISCDefinition>
                    <nciodm:PreferredTerm>Total Body Water Measurement</nciodm:PreferredTerm>
                </EnumeratedItem>
                <EnumeratedItem CodedValue="TEMP" nciodm:ExtCodeID="C25206">
                    <nciodm:CDISCSynonym>Temperature</nciodm:CDISCSynonym>
                    <nciodm:CDISCDefinition>The property of a body or region of space that determines whether or not there will be a net flow of heat into it or out of it from a neighboring body or region and in which direction (if any) the heat will flow, perceptible by living organism as a somatic sensation of cold or heat. It is a measure of the average translational kinetic energy associated with the disordered microscopic motion of atoms and molecules. Temperature is measured in one of the three standard temperature scales: Celsius, Kelvin, and Fahrenheit. (NCI)</nciodm:CDISCDefinition>
                    <nciodm:PreferredTerm>Temperature</nciodm:PreferredTerm>
                </EnumeratedItem>
                <EnumeratedItem CodedValue="TRSKNF" nciodm:ExtCodeID="C98793">
                    <nciodm:CDISCSynonym>Triceps Skinfold Thickness</nciodm:CDISCSynonym>
                    <nciodm:CDISCDefinition>A measurement of the thickness of a pinch of skin on the triceps. (NCI)</nciodm:CDISCDefinition>
                    <nciodm:PreferredTerm>Triceps Skinfold Thickness</nciodm:PreferredTerm>
                </EnumeratedItem>
                <EnumeratedItem CodedValue="WEIGHT" nciodm:ExtCodeID="C25208">
                    <nciodm:CDISCSynonym>Weight</nciodm:CDISCSynonym>
                    <nciodm:CDISCDefinition>The vertical force exerted by a mass as a result of gravity. (NCI)</nciodm:CDISCDefinition>
                    <nciodm:PreferredTerm>Weight</nciodm:PreferredTerm>
                </EnumeratedItem>
                <EnumeratedItem CodedValue="WSTCIR" nciodm:ExtCodeID="C100948">
                    <nciodm:CDISCSynonym>Waist Circumference</nciodm:CDISCSynonym>
                    <nciodm:CDISCDefinition>The distance around an individual's midsection or waist.</nciodm:CDISCDefinition>
                    <nciodm:PreferredTerm>Waist Circumference</nciodm:PreferredTerm>
                </EnumeratedItem>
                <nciodm:CDISCSubmissionValue>VSTESTCD</nciodm:CDISCSubmissionValue>
                <nciodm:CDISCSynonym>Vital Signs Test Code</nciodm:CDISCSynonym>
                <nciodm:PreferredTerm>CDISC SDTM Vital Sign Test Code Terminology</nciodm:PreferredTerm>
            </CodeList>
            
