<CodeList xmlns="http://www.cdisc.org/ns/odm/v1.3" xmlns:nciodm="http://ncicb.nci.nih.gov/xml/odm/EVS/CDISC" xmlns:xs="http://www.w3.org/2001/XMLSchema-instance" OID="CL.C66785.TCNTRL" Name="Control Type" DataType="text" nciodm:ExtCodeID="C66785" nciodm:CodeListExtensible="Yes">
                <Description>
                    <TranslatedText xml:lang="en">Comparator against which the study treatment is evaluated (e.g., concurrent (placebo, no treatment, dose-response, active), external (historical, published literature).</TranslatedText>
                </Description>
                <EnumeratedItem CodedValue="ACTIVE" nciodm:ExtCodeID="C49649">
                    <nciodm:CDISCDefinition>A type of control, which has a demonstrated effect, administered as a comparator, to subjects in a clinical trial. [From ICH E10].</nciodm:CDISCDefinition>
                    <nciodm:PreferredTerm>Active Control</nciodm:PreferredTerm>
                </EnumeratedItem>
                <EnumeratedItem CodedValue="DOSE RESPONSE" nciodm:ExtCodeID="C120841">
                    <nciodm:CDISCDefinition>A type of control using different doses or regimens of the same treatment across the treatment arms.</nciodm:CDISCDefinition>
                    <nciodm:PreferredTerm>Dose Response Control</nciodm:PreferredTerm>
                </EnumeratedItem>
                <EnumeratedItem CodedValue="NONE" nciodm:ExtCodeID="C41132">
                    <nciodm:CDISCDefinition>No person or thing, nobody, not any. (NCI)</nciodm:CDISCDefinition>
                    <nciodm:PreferredTerm>None</nciodm:PreferredTerm>
                </EnumeratedItem>
                <EnumeratedItem CodedValue="PLACEBO" nciodm:ExtCodeID="C49648">
                    <nciodm:CDISCDefinition>Use of an inactive compound identical in appearance to drug or treatment being tested in experimental research, which may or may not be known to the physician and/or subject, administered to distinguish between drug action and suggestive effect of the drug or treatment under study. The effects of the active drug or treatment are compared to the effects of the placebo. (NCI)</nciodm:CDISCDefinition>
                    <nciodm:PreferredTerm>Placebo Control</nciodm:PreferredTerm>
                </EnumeratedItem>
                <nciodm:CDISCSubmissionValue>TCNTRL</nciodm:CDISCSubmissionValue>
                <nciodm:CDISCSynonym>Control Type</nciodm:CDISCSynonym>
                <nciodm:PreferredTerm>CDISC SDTM Control Type Terminology</nciodm:PreferredTerm>
            </CodeList>
            
