<CodeList xmlns="http://www.cdisc.org/ns/odm/v1.3" xmlns:nciodm="http://ncicb.nci.nih.gov/xml/odm/EVS/CDISC" xmlns:xs="http://www.w3.org/2001/XMLSchema-instance" OID="CL.C125741.ASEX01TC" Name="Arizona Sexual Experiences Scale - Female Questionnaire Test Code" DataType="text" nciodm:ExtCodeID="C125741" nciodm:CodeListExtensible="No">
                <Description>
                    <TranslatedText xml:lang="en">Arizona Sexual Experiences Scale - Female test code.</TranslatedText>
                </Description>
                <EnumeratedItem CodedValue="ASEX0101" nciodm:ExtCodeID="C125763">
                    <nciodm:CDISCSynonym>ASEX01-Sex Drive</nciodm:CDISCSynonym>
                    <nciodm:CDISCDefinition>Arizona Sexual Experiences Scale Female - How strong is your sex drive?</nciodm:CDISCDefinition>
                    <nciodm:PreferredTerm>ASEX-Female Version - Sex Drive</nciodm:PreferredTerm>
                </EnumeratedItem>
                <EnumeratedItem CodedValue="ASEX0102" nciodm:ExtCodeID="C125764">
                    <nciodm:CDISCSynonym>ASEX01-Sexually Aroused</nciodm:CDISCSynonym>
                    <nciodm:CDISCDefinition>Arizona Sexual Experiences Scale Female - How easily are you sexually aroused (turned on)?</nciodm:CDISCDefinition>
                    <nciodm:PreferredTerm>ASEX-Female Version - Sexually Aroused</nciodm:PreferredTerm>
                </EnumeratedItem>
                <EnumeratedItem CodedValue="ASEX0103" nciodm:ExtCodeID="C125765">
                    <nciodm:CDISCSynonym>ASEX01-Vagina Become Moist</nciodm:CDISCSynonym>
                    <nciodm:CDISCDefinition>Arizona Sexual Experiences Scale Female - How easily does your vagina become moist or wet during sex?</nciodm:CDISCDefinition>
                    <nciodm:PreferredTerm>ASEX-Female Version - Vagina Become Moist</nciodm:PreferredTerm>
                </EnumeratedItem>
                <EnumeratedItem CodedValue="ASEX0104" nciodm:ExtCodeID="C125766">
                    <nciodm:CDISCSynonym>ASEX01-Reach Orgasm</nciodm:CDISCSynonym>
                    <nciodm:CDISCDefinition>Arizona Sexual Experiences Scale Female - How easily can you reach an orgasm?</nciodm:CDISCDefinition>
                    <nciodm:PreferredTerm>ASEX-Female Version - Reach Orgasm</nciodm:PreferredTerm>
                </EnumeratedItem>
                <EnumeratedItem CodedValue="ASEX0105" nciodm:ExtCodeID="C125767">
                    <nciodm:CDISCSynonym>ASEX01-Orgasms Satisfying</nciodm:CDISCSynonym>
                    <nciodm:CDISCDefinition>Arizona Sexual Experiences Scale Female - Are your orgasms satisfying?</nciodm:CDISCDefinition>
                    <nciodm:PreferredTerm>ASEX-Female Version - Orgasms Satisfying</nciodm:PreferredTerm>
                </EnumeratedItem>
                <EnumeratedItem CodedValue="ASEX0106" nciodm:ExtCodeID="C129254">
                    <nciodm:CDISCSynonym>ASEX01-Comments</nciodm:CDISCSynonym>
                    <nciodm:CDISCDefinition>Arizona Sexual Experiences Scale Female - Comments.</nciodm:CDISCDefinition>
                    <nciodm:PreferredTerm>ASEX-Female Version - Comments</nciodm:PreferredTerm>
                </EnumeratedItem>
                <nciodm:CDISCSubmissionValue>ASEX01TC</nciodm:CDISCSubmissionValue>
                <nciodm:CDISCSynonym>Arizona Sexual Experiences Scale - Female Questionnaire Test Code</nciodm:CDISCSynonym>
                <nciodm:PreferredTerm>CDISC Questionnaire ASEX-Female Version Test Code Terminology</nciodm:PreferredTerm>
            </CodeList>
            
