<CodeList xmlns="http://www.cdisc.org/ns/odm/v1.3" xmlns:nciodm="http://ncicb.nci.nih.gov/xml/odm/EVS/CDISC" xmlns:xs="http://www.w3.org/2001/XMLSchema-instance" OID="CL.C129087.FAC071TN" Name="Functional Assessment of Chronic Illness Therapy-Fatigue Version 4 Questionnaire Test Name" DataType="text" nciodm:ExtCodeID="C129087" nciodm:CodeListExtensible="No">
                <Description>
                    <TranslatedText xml:lang="en">Functional Assessment of Chronic Illness Therapy-Fatigue Version 4 test name.</TranslatedText>
                </Description>
                <EnumeratedItem CodedValue="FAC071-Able to Do My Usual Activities" nciodm:ExtCodeID="C129145">
                    <nciodm:CDISCSynonym>FAC071-Able to Do My Usual Activities</nciodm:CDISCSynonym>
                    <nciodm:CDISCDefinition>Functional Assessment of Chronic Illness Therapy-Fatigue Version 4 - Additional Concerns: I am able to do my usual activities.</nciodm:CDISCDefinition>
                    <nciodm:PreferredTerm>FACIT-F Version 4 - Able to Do My Usual Activities</nciodm:PreferredTerm>
                </EnumeratedItem>
                <EnumeratedItem CodedValue="FAC071-Bothered by Treatment Side Effect" nciodm:ExtCodeID="C129115">
                    <nciodm:CDISCSynonym>FAC071-Bothered by Treatment Side Effect</nciodm:CDISCSynonym>
                    <nciodm:CDISCDefinition>Functional Assessment of Chronic Illness Therapy-Fatigue Version 4 - Physical Well-Being: I am bothered by side effects of treatment.</nciodm:CDISCDefinition>
                    <nciodm:PreferredTerm>FACIT-F Version 4 - Bothered by Treatment Side Effect</nciodm:PreferredTerm>
                </EnumeratedItem>
                <EnumeratedItem CodedValue="FAC071-Content With Quality of My Life" nciodm:ExtCodeID="C129137">
                    <nciodm:CDISCSynonym>FAC071-Content With Quality of My Life</nciodm:CDISCSynonym>
                    <nciodm:CDISCDefinition>Functional Assessment of Chronic Illness Therapy-Fatigue Version 4 - Functional Well-Being: I am content with the quality of my life right now.</nciodm:CDISCDefinition>
                    <nciodm:PreferredTerm>FACIT-F Version 4 - Content With Quality of My Life</nciodm:PreferredTerm>
                </EnumeratedItem>
                <EnumeratedItem CodedValue="FAC071-Enjoy Things I Usually Do for Fun" nciodm:ExtCodeID="C129136">
                    <nciodm:CDISCSynonym>FAC071-Enjoy Things I Usually Do for Fun</nciodm:CDISCSynonym>
                    <nciodm:CDISCDefinition>Functional Assessment of Chronic Illness Therapy-Fatigue Version 4 - Functional Well-Being: I am enjoying the things I usually do for fun.</nciodm:CDISCDefinition>
                    <nciodm:PreferredTerm>FACIT-F Version 4 - Enjoy Things I Usually Do for Fun</nciodm:PreferredTerm>
                </EnumeratedItem>
                <EnumeratedItem CodedValue="FAC071-Frustrated by Being Too Tired" nciodm:ExtCodeID="C129149">
                    <nciodm:CDISCSynonym>FAC071-Frustrated by Being Too Tired</nciodm:CDISCSynonym>
                    <nciodm:CDISCDefinition>Functional Assessment of Chronic Illness Therapy-Fatigue Version 4 - Additional Concerns: I am frustrated by being too tired to do the things I want to do.</nciodm:CDISCDefinition>
                    <nciodm:PreferredTerm>FACIT-F Version 4 - Frustrated by Being Too Tired</nciodm:PreferredTerm>
                </EnumeratedItem>
                <EnumeratedItem CodedValue="FAC071-Get Emotional Support From Family" nciodm:ExtCodeID="C129119">
                    <nciodm:CDISCSynonym>FAC071-Get Emotional Support From Family</nciodm:CDISCSynonym>
                    <nciodm:CDISCDefinition>Functional Assessment of Chronic Illness Therapy-Fatigue Version 4 - Social/Family Well-Being: I get emotional support from my family.</nciodm:CDISCDefinition>
                    <nciodm:PreferredTerm>FACIT-F Version 4 - Get Emotional Support From Family</nciodm:PreferredTerm>
                </EnumeratedItem>
                <EnumeratedItem CodedValue="FAC071-I Am Able to Enjoy Life" nciodm:ExtCodeID="C129133">
                    <nciodm:CDISCSynonym>FAC071-I Am Able to Enjoy Life</nciodm:CDISCSynonym>
                    <nciodm:CDISCDefinition>Functional Assessment of Chronic Illness Therapy-Fatigue Version 4 - Functional Well-Being: I am able to enjoy life.</nciodm:CDISCDefinition>
                    <nciodm:PreferredTerm>FACIT-F Version 4 - I Am Able to Enjoy Life</nciodm:PreferredTerm>
                </EnumeratedItem>
                <EnumeratedItem CodedValue="FAC071-I Am Able to Work" nciodm:ExtCodeID="C129131">
                    <nciodm:CDISCSynonym>FAC071-I Am Able to Work</nciodm:CDISCSynonym>
                    <nciodm:CDISCDefinition>Functional Assessment of Chronic Illness Therapy-Fatigue Version 4 - Functional Well-Being: I am able to work (include work at home).</nciodm:CDISCDefinition>
                    <nciodm:PreferredTerm>FACIT-F Version 4 - I Am Able to Work</nciodm:PreferredTerm>
                </EnumeratedItem>
                <EnumeratedItem CodedValue="FAC071-I Am Forced to Spend Time in Bed" nciodm:ExtCodeID="C129117">
                    <nciodm:CDISCSynonym>FAC071-I Am Forced to Spend Time in Bed</nciodm:CDISCSynonym>
                    <nciodm:CDISCDefinition>Functional Assessment of Chronic Illness Therapy-Fatigue Version 4 - Physical Well-Being: I am forced to spend time in bed.</nciodm:CDISCDefinition>
                    <nciodm:PreferredTerm>FACIT-F Version 4 - I Am Forced to Spend Time in Bed</nciodm:PreferredTerm>
                </EnumeratedItem>
                <EnumeratedItem CodedValue="FAC071-I Am Satisfied With My Sex Life" nciodm:ExtCodeID="C129124">
                    <nciodm:CDISCSynonym>FAC071-I Am Satisfied With My Sex Life</nciodm:CDISCSynonym>
                    <nciodm:CDISCDefinition>Functional Assessment of Chronic Illness Therapy-Fatigue Version 4 - Social/Family Well-Being: I am satisfied with my sex life.</nciodm:CDISCDefinition>
                    <nciodm:PreferredTerm>FACIT-F Version 4 - I Am Satisfied With My Sex Life</nciodm:PreferredTerm>
                </EnumeratedItem>
                <EnumeratedItem CodedValue="FAC071-I Am Sleeping Well" nciodm:ExtCodeID="C129135">
                    <nciodm:CDISCSynonym>FAC071-I Am Sleeping Well</nciodm:CDISCSynonym>
                    <nciodm:CDISCDefinition>Functional Assessment of Chronic Illness Therapy-Fatigue Version 4 - Functional Well-Being: I am sleeping well.</nciodm:CDISCDefinition>
                    <nciodm:PreferredTerm>FACIT-F Version 4 - I Am Sleeping Well</nciodm:PreferredTerm>
                </EnumeratedItem>
                <EnumeratedItem CodedValue="FAC071-I Am Too Tired to Eat" nciodm:ExtCodeID="C129147">
                    <nciodm:CDISCSynonym>FAC071-I Am Too Tired to Eat</nciodm:CDISCSynonym>
                    <nciodm:CDISCDefinition>Functional Assessment of Chronic Illness Therapy-Fatigue Version 4 - Additional Concerns: I am too tired to eat.</nciodm:CDISCDefinition>
                    <nciodm:PreferredTerm>FACIT-F Version 4 - I Am Too Tired to Eat</nciodm:PreferredTerm>
                </EnumeratedItem>
                <EnumeratedItem CodedValue="FAC071-I Feel Close to My Friends" nciodm:ExtCodeID="C129118">
                    <nciodm:CDISCSynonym>FAC071-I Feel Close to My Friends</nciodm:CDISCSynonym>
                    <nciodm:CDISCDefinition>Functional Assessment of Chronic Illness Therapy-Fatigue Version 4 - Social/Family Well-Being: I feel close to my friends.</nciodm:CDISCDefinition>
                    <nciodm:PreferredTerm>FACIT-F Version 4 - I Feel Close to My Friends</nciodm:PreferredTerm>
                </EnumeratedItem>
                <EnumeratedItem CodedValue="FAC071-I Feel Close to My Partner" nciodm:ExtCodeID="C129123">
                    <nciodm:CDISCSynonym>FAC071-I Feel Close to My Partner</nciodm:CDISCSynonym>
                    <nciodm:CDISCDefinition>Functional Assessment of Chronic Illness Therapy-Fatigue Version 4 - Social/Family Well-Being: I feel close to my partner (or the person who is my main support).</nciodm:CDISCDefinition>
                    <nciodm:PreferredTerm>FACIT-F Version 4 - I Feel Close to My Partner</nciodm:PreferredTerm>
                </EnumeratedItem>
                <EnumeratedItem CodedValue="FAC071-I Feel Fatigued" nciodm:ExtCodeID="C129138">
                    <nciodm:CDISCSynonym>FAC071-I Feel Fatigued</nciodm:CDISCSynonym>
                    <nciodm:CDISCDefinition>Functional Assessment of Chronic Illness Therapy-Fatigue Version 4 - Additional Concerns: I feel fatigued.</nciodm:CDISCDefinition>
                    <nciodm:PreferredTerm>FACIT-F Version 4 - I Feel Fatigued</nciodm:PreferredTerm>
                </EnumeratedItem>
                <EnumeratedItem CodedValue="FAC071-I Feel Ill" nciodm:ExtCodeID="C129116">
                    <nciodm:CDISCSynonym>FAC071-I Feel Ill</nciodm:CDISCSynonym>
                    <nciodm:CDISCDefinition>Functional Assessment of Chronic Illness Therapy-Fatigue Version 4 - Physical Well-Being: I feel ill.</nciodm:CDISCDefinition>
                    <nciodm:PreferredTerm>FACIT-F Version 4 - I Feel Ill</nciodm:PreferredTerm>
                </EnumeratedItem>
                <EnumeratedItem CodedValue="FAC071-I Feel Listless" nciodm:ExtCodeID="C129140">
                    <nciodm:CDISCSynonym>FAC071-I Feel Listless</nciodm:CDISCSynonym>
                    <nciodm:CDISCDefinition>Functional Assessment of Chronic Illness Therapy-Fatigue Version 4 - Additional Concerns: I feel listless ('washed out').</nciodm:CDISCDefinition>
                    <nciodm:PreferredTerm>FACIT-F Version 4 - I Feel Listless</nciodm:PreferredTerm>
                </EnumeratedItem>
                <EnumeratedItem CodedValue="FAC071-I Feel Nervous" nciodm:ExtCodeID="C129128">
                    <nciodm:CDISCSynonym>FAC071-I Feel Nervous</nciodm:CDISCSynonym>
                    <nciodm:CDISCDefinition>Functional Assessment of Chronic Illness Therapy-Fatigue Version 4 - Emotional Well-Being: I feel nervous.</nciodm:CDISCDefinition>
                    <nciodm:PreferredTerm>FACIT-F Version 4 - I Feel Nervous</nciodm:PreferredTerm>
                </EnumeratedItem>
                <EnumeratedItem CodedValue="FAC071-I Feel Sad" nciodm:ExtCodeID="C129125">
                    <nciodm:CDISCSynonym>FAC071-I Feel Sad</nciodm:CDISCSynonym>
                    <nciodm:CDISCDefinition>Functional Assessment of Chronic Illness Therapy-Fatigue Version 4 - Emotional Well-Being: I feel sad.</nciodm:CDISCDefinition>
                    <nciodm:PreferredTerm>FACIT-F Version 4 - I Feel Sad</nciodm:PreferredTerm>
                </EnumeratedItem>
                <EnumeratedItem CodedValue="FAC071-I Feel Tired" nciodm:ExtCodeID="C129141">
                    <nciodm:CDISCSynonym>FAC071-I Feel Tired</nciodm:CDISCSynonym>
                    <nciodm:CDISCDefinition>Functional Assessment of Chronic Illness Therapy-Fatigue Version 4 - Additional Concerns: I feel tired.</nciodm:CDISCDefinition>
                    <nciodm:PreferredTerm>FACIT-F Version 4 - I Feel Tired</nciodm:PreferredTerm>
                </EnumeratedItem>
                <EnumeratedItem CodedValue="FAC071-I Feel Weak All Over" nciodm:ExtCodeID="C129139">
                    <nciodm:CDISCSynonym>FAC071-I Feel Weak All Over</nciodm:CDISCSynonym>
                    <nciodm:CDISCDefinition>Functional Assessment of Chronic Illness Therapy-Fatigue Version 4 - Additional Concerns: I feel weak all over.</nciodm:CDISCDefinition>
                    <nciodm:PreferredTerm>FACIT-F Version 4 - I Feel Weak All Over</nciodm:PreferredTerm>
                </EnumeratedItem>
                <EnumeratedItem CodedValue="FAC071-I Get Support From My Friends" nciodm:ExtCodeID="C129120">
                    <nciodm:CDISCSynonym>FAC071-I Get Support From My Friends</nciodm:CDISCSynonym>
                    <nciodm:CDISCDefinition>Functional Assessment of Chronic Illness Therapy-Fatigue Version 4 - Social/Family Well-Being: I get support from my friends.</nciodm:CDISCDefinition>
                    <nciodm:PreferredTerm>FACIT-F Version 4 - I Get Support From My Friends</nciodm:PreferredTerm>
                </EnumeratedItem>
                <EnumeratedItem CodedValue="FAC071-I Have a Lack of Energy" nciodm:ExtCodeID="C129111">
                    <nciodm:CDISCSynonym>FAC071-I Have a Lack of Energy</nciodm:CDISCSynonym>
                    <nciodm:CDISCDefinition>Functional Assessment of Chronic Illness Therapy-Fatigue Version 4 - Physical Well-Being: I have a lack of energy.</nciodm:CDISCDefinition>
                    <nciodm:PreferredTerm>FACIT-F Version 4 - I Have a Lack of Energy</nciodm:PreferredTerm>
                </EnumeratedItem>
                <EnumeratedItem CodedValue="FAC071-I Have Accepted My Illness" nciodm:ExtCodeID="C129134">
                    <nciodm:CDISCSynonym>FAC071-I Have Accepted My Illness</nciodm:CDISCSynonym>
                    <nciodm:CDISCDefinition>Functional Assessment of Chronic Illness Therapy-Fatigue Version 4 - Functional Well-Being: I have accepted my illness.</nciodm:CDISCDefinition>
                    <nciodm:PreferredTerm>FACIT-F Version 4 - I Have Accepted My Illness</nciodm:PreferredTerm>
                </EnumeratedItem>
                <EnumeratedItem CodedValue="FAC071-I Have Energy" nciodm:ExtCodeID="C129144">
                    <nciodm:CDISCSynonym>FAC071-I Have Energy</nciodm:CDISCSynonym>
                    <nciodm:CDISCDefinition>Functional Assessment of Chronic Illness Therapy-Fatigue Version 4 - Additional Concerns: I have energy.</nciodm:CDISCDefinition>
                    <nciodm:PreferredTerm>FACIT-F Version 4 - I Have Energy</nciodm:PreferredTerm>
                </EnumeratedItem>
                <EnumeratedItem CodedValue="FAC071-I Have Nausea" nciodm:ExtCodeID="C129112">
                    <nciodm:CDISCSynonym>FAC071-I Have Nausea</nciodm:CDISCSynonym>
                    <nciodm:CDISCDefinition>Functional Assessment of Chronic Illness Therapy-Fatigue Version 4 - Physical Well-Being: I have nausea.</nciodm:CDISCDefinition>
                    <nciodm:PreferredTerm>FACIT-F Version 4 - I Have Nausea</nciodm:PreferredTerm>
                </EnumeratedItem>
                <EnumeratedItem CodedValue="FAC071-I Have Pain" nciodm:ExtCodeID="C129114">
                    <nciodm:CDISCSynonym>FAC071-I Have Pain</nciodm:CDISCSynonym>
                    <nciodm:CDISCDefinition>Functional Assessment of Chronic Illness Therapy-Fatigue Version 4 - Physical Well-Being: I have pain.</nciodm:CDISCDefinition>
                    <nciodm:PreferredTerm>FACIT-F Version 4 - I Have Pain</nciodm:PreferredTerm>
                </EnumeratedItem>
                <EnumeratedItem CodedValue="FAC071-I Need to Sleep During the Day" nciodm:ExtCodeID="C129146">
                    <nciodm:CDISCSynonym>FAC071-I Need to Sleep During the Day</nciodm:CDISCSynonym>
                    <nciodm:CDISCDefinition>Functional Assessment of Chronic Illness Therapy-Fatigue Version 4 - Additional Concerns: I need to sleep during the day.</nciodm:CDISCDefinition>
                    <nciodm:PreferredTerm>FACIT-F Version 4 - I Need to Sleep During the Day</nciodm:PreferredTerm>
                </EnumeratedItem>
                <EnumeratedItem CodedValue="FAC071-I Worry About Dying" nciodm:ExtCodeID="C129129">
                    <nciodm:CDISCSynonym>FAC071-I Worry About Dying</nciodm:CDISCSynonym>
                    <nciodm:CDISCDefinition>Functional Assessment of Chronic Illness Therapy-Fatigue Version 4 - Emotional Well-Being: I worry about dying.</nciodm:CDISCDefinition>
                    <nciodm:PreferredTerm>FACIT-F Version 4 - I Worry About Dying</nciodm:PreferredTerm>
                </EnumeratedItem>
                <EnumeratedItem CodedValue="FAC071-Limit Social Activity, I am Tired" nciodm:ExtCodeID="C129150">
                    <nciodm:CDISCSynonym>FAC071-Limit Social Activity, I am Tired</nciodm:CDISCSynonym>
                    <nciodm:CDISCDefinition>Functional Assessment of Chronic Illness Therapy-Fatigue Version 4 - Additional Concerns: I have to limit my social activity because I am tired.</nciodm:CDISCDefinition>
                    <nciodm:PreferredTerm>FACIT-F Version 4 - Limit Social Activity, I am Tired</nciodm:PreferredTerm>
                </EnumeratedItem>
                <EnumeratedItem CodedValue="FAC071-Losing Hope Against Illness" nciodm:ExtCodeID="C129127">
                    <nciodm:CDISCSynonym>FAC071-Losing Hope Against Illness</nciodm:CDISCSynonym>
                    <nciodm:CDISCDefinition>Functional Assessment of Chronic Illness Therapy-Fatigue Version 4 - Emotional Well-Being: I am losing hope in the fight against my illness.</nciodm:CDISCDefinition>
                    <nciodm:PreferredTerm>FACIT-F Version 4 - Losing Hope Against Illness</nciodm:PreferredTerm>
                </EnumeratedItem>
                <EnumeratedItem CodedValue="FAC071-My Family Has Accepted My Illness" nciodm:ExtCodeID="C129121">
                    <nciodm:CDISCSynonym>FAC071-My Family Has Accepted My Illness</nciodm:CDISCSynonym>
                    <nciodm:CDISCDefinition>Functional Assessment of Chronic Illness Therapy-Fatigue Version 4 - Social/Family Well-Being: My family has accepted my illness.</nciodm:CDISCDefinition>
                    <nciodm:PreferredTerm>FACIT-F Version 4 - My Family Has Accepted My Illness</nciodm:PreferredTerm>
                </EnumeratedItem>
                <EnumeratedItem CodedValue="FAC071-My Work Is Fulfilling" nciodm:ExtCodeID="C129132">
                    <nciodm:CDISCSynonym>FAC071-My Work Is Fulfilling</nciodm:CDISCSynonym>
                    <nciodm:CDISCDefinition>Functional Assessment of Chronic Illness Therapy-Fatigue Version 4 - Functional Well-Being: My work (include work at home) is fulfilling.</nciodm:CDISCDefinition>
                    <nciodm:PreferredTerm>FACIT-F Version 4 - My Work Is Fulfilling</nciodm:PreferredTerm>
                </EnumeratedItem>
                <EnumeratedItem CodedValue="FAC071-Need Help Doing Usual Activities" nciodm:ExtCodeID="C129148">
                    <nciodm:CDISCSynonym>FAC071-Need Help Doing Usual Activities</nciodm:CDISCSynonym>
                    <nciodm:CDISCDefinition>Functional Assessment of Chronic Illness Therapy-Fatigue Version 4 - Additional Concerns: I need help doing my usual activities.</nciodm:CDISCDefinition>
                    <nciodm:PreferredTerm>FACIT-F Version 4 - Need Help Doing Usual Activities</nciodm:PreferredTerm>
                </EnumeratedItem>
                <EnumeratedItem CodedValue="FAC071-Satisfied Communication Illness" nciodm:ExtCodeID="C129122">
                    <nciodm:CDISCSynonym>FAC071-Satisfied Communication Illness</nciodm:CDISCSynonym>
                    <nciodm:CDISCDefinition>Functional Assessment of Chronic Illness Therapy-Fatigue Version 4 - Social/Family Well-Being: I am satisfied with family communication about my illness.</nciodm:CDISCDefinition>
                    <nciodm:PreferredTerm>FACIT-F Version 4 - Satisfied Family Communication of Illness</nciodm:PreferredTerm>
                </EnumeratedItem>
                <EnumeratedItem CodedValue="FAC071-Satisfied With How I Am Coping" nciodm:ExtCodeID="C129126">
                    <nciodm:CDISCSynonym>FAC071-Satisfied With How I Am Coping</nciodm:CDISCSynonym>
                    <nciodm:CDISCDefinition>Functional Assessment of Chronic Illness Therapy-Fatigue Version 4 - Emotional Well-Being: I am satisfied with how I am coping with my illness.</nciodm:CDISCDefinition>
                    <nciodm:PreferredTerm>FACIT-F Version 4 - Satisfied With How I Am Coping</nciodm:PreferredTerm>
                </EnumeratedItem>
                <EnumeratedItem CodedValue="FAC071-Trouble Finishing Things" nciodm:ExtCodeID="C129143">
                    <nciodm:CDISCSynonym>FAC071-Trouble Finishing Things</nciodm:CDISCSynonym>
                    <nciodm:CDISCDefinition>Functional Assessment of Chronic Illness Therapy-Fatigue Version 4 - Additional Concerns: I have trouble finishing things because I am tired.</nciodm:CDISCDefinition>
                    <nciodm:PreferredTerm>FACIT-F Version 4 - Trouble Finishing Things</nciodm:PreferredTerm>
                </EnumeratedItem>
                <EnumeratedItem CodedValue="FAC071-Trouble Meeting Needs of Family" nciodm:ExtCodeID="C129113">
                    <nciodm:CDISCSynonym>FAC071-Trouble Meeting Needs of Family</nciodm:CDISCSynonym>
                    <nciodm:CDISCDefinition>Functional Assessment of Chronic Illness Therapy-Fatigue Version 4 - Physical Well-Being: Because of my physical condition, I have trouble meeting the needs of my family.</nciodm:CDISCDefinition>
                    <nciodm:PreferredTerm>FACIT-F Version 4 - Trouble Meeting Needs of Family</nciodm:PreferredTerm>
                </EnumeratedItem>
                <EnumeratedItem CodedValue="FAC071-Trouble Starting Things" nciodm:ExtCodeID="C129142">
                    <nciodm:CDISCSynonym>FAC071-Trouble Starting Things</nciodm:CDISCSynonym>
                    <nciodm:CDISCDefinition>Functional Assessment of Chronic Illness Therapy-Fatigue Version 4 - Additional Concerns: I have trouble starting things because I am tired.</nciodm:CDISCDefinition>
                    <nciodm:PreferredTerm>FACIT-F Version 4 - Trouble Starting Things</nciodm:PreferredTerm>
                </EnumeratedItem>
                <EnumeratedItem CodedValue="FAC071-Worry My Condition Will Get Worse" nciodm:ExtCodeID="C129130">
                    <nciodm:CDISCSynonym>FAC071-Worry My Condition Will Get Worse</nciodm:CDISCSynonym>
                    <nciodm:CDISCDefinition>Functional Assessment of Chronic Illness Therapy-Fatigue Version 4 - Emotional Well-Being: I worry that my condition will get worse.</nciodm:CDISCDefinition>
                    <nciodm:PreferredTerm>FACIT-F Version 4 - Worry My Condition Will Get Worse</nciodm:PreferredTerm>
                </EnumeratedItem>
                <nciodm:CDISCSubmissionValue>FAC071TN</nciodm:CDISCSubmissionValue>
                <nciodm:CDISCSynonym>Functional Assessment of Chronic Illness Therapy-Fatigue Version 4 Questionnaire Test Name</nciodm:CDISCSynonym>
                <nciodm:PreferredTerm>CDISC Questionnaire FACIT-F Version 4 Test Name Terminology</nciodm:PreferredTerm>
            </CodeList>
            
