<CodeList xmlns="http://www.cdisc.org/ns/odm/v1.3" xmlns:nciodm="http://ncicb.nci.nih.gov/xml/odm/EVS/CDISC" xmlns:xs="http://www.w3.org/2001/XMLSchema-instance" OID="CL.C119066.CCQ 1 WEEK VERSION TESTCD" Name="Clinical COPD Questionnaire 1 Week Version Test Code" DataType="text" nciodm:ExtCodeID="C119066" nciodm:CodeListExtensible="No">
                <Description>
                    <TranslatedText xml:lang="en">Clinical COPD Questionnaire 1 Week Version test code.</TranslatedText>
                </Description>
                <EnumeratedItem CodedValue="CCQ0201" nciodm:ExtCodeID="C119132">
                    <nciodm:CDISCSynonym>CCQ02-Short of Breath at Rest</nciodm:CDISCSynonym>
                    <nciodm:CDISCDefinition>Clinical COPD Questionnaire 1 Week Version - On average, during the past 7 days, how often did you feel: Short of breath while at rest?</nciodm:CDISCDefinition>
                    <nciodm:PreferredTerm>CCQ 1 Week Version - Short of Breath at Rest</nciodm:PreferredTerm>
                </EnumeratedItem>
                <EnumeratedItem CodedValue="CCQ0202" nciodm:ExtCodeID="C119133">
                    <nciodm:CDISCSynonym>CCQ02-Short of Breath Physical Activity</nciodm:CDISCSynonym>
                    <nciodm:CDISCDefinition>Clinical COPD Questionnaire 1 Week Version - On average, during the past 7 days, how often did you feel: Short of breath while doing physical activities?</nciodm:CDISCDefinition>
                    <nciodm:PreferredTerm>CCQ 1 Week Version - Short of Breath Doing Physical Activity</nciodm:PreferredTerm>
                </EnumeratedItem>
                <EnumeratedItem CodedValue="CCQ0203" nciodm:ExtCodeID="C119134">
                    <nciodm:CDISCSynonym>CCQ02-Concern About Breathing Get Worse</nciodm:CDISCSynonym>
                    <nciodm:CDISCDefinition>Clinical COPD Questionnaire 1 Week Version - On average, during the past 7 days, how often did you feel: Concerned about getting a cold or your breathing getting worse?</nciodm:CDISCDefinition>
                    <nciodm:PreferredTerm>CCQ 1 Week Version - Concern About Breathing Get Worse</nciodm:PreferredTerm>
                </EnumeratedItem>
                <EnumeratedItem CodedValue="CCQ0204" nciodm:ExtCodeID="C119135">
                    <nciodm:CDISCSynonym>CCQ02-Depressed for Breathing Problem</nciodm:CDISCSynonym>
                    <nciodm:CDISCDefinition>Clinical COPD Questionnaire 1 Week Version - On average, during the past 7 days, how often did you feel: Depressed because of your breathing problems?</nciodm:CDISCDefinition>
                    <nciodm:PreferredTerm>CCQ 1 Week Version - Depressed Because of Breathing Problem</nciodm:PreferredTerm>
                </EnumeratedItem>
                <EnumeratedItem CodedValue="CCQ0205" nciodm:ExtCodeID="C119136">
                    <nciodm:CDISCSynonym>CCQ02-Cough</nciodm:CDISCSynonym>
                    <nciodm:CDISCDefinition>Clinical COPD Questionnaire 1 Week Version - In general, during the past 7 days, how much of the time: Did you cough?</nciodm:CDISCDefinition>
                    <nciodm:PreferredTerm>CCQ 1 Week Version - Did You Cough</nciodm:PreferredTerm>
                </EnumeratedItem>
                <EnumeratedItem CodedValue="CCQ0206" nciodm:ExtCodeID="C119137">
                    <nciodm:CDISCSynonym>CCQ02-Produce Sputum or Phlegm</nciodm:CDISCSynonym>
                    <nciodm:CDISCDefinition>Clinical COPD Questionnaire 1 Week Version - In general, during the past 7 days, how much of the time: Did you produce sputum or phlegm?</nciodm:CDISCDefinition>
                    <nciodm:PreferredTerm>CCQ 1 Week Version - Produce Sputum or Phlegm</nciodm:PreferredTerm>
                </EnumeratedItem>
                <EnumeratedItem CodedValue="CCQ0207" nciodm:ExtCodeID="C119138">
                    <nciodm:CDISCSynonym>CCQ02-Breathing Limit Strenuous Activity</nciodm:CDISCSynonym>
                    <nciodm:CDISCDefinition>Clinical COPD Questionnaire 1 Week Version - On average, during the past 7 days, how limited were you in these activities because of your breathing problems: Strenuous physical activities?</nciodm:CDISCDefinition>
                    <nciodm:PreferredTerm>CCQ 1 Week Version - Breathing Problems Limit Strenuous Activity</nciodm:PreferredTerm>
                </EnumeratedItem>
                <EnumeratedItem CodedValue="CCQ0208" nciodm:ExtCodeID="C119139">
                    <nciodm:CDISCSynonym>CCQ02-Breathing Limit Moderate Activity</nciodm:CDISCSynonym>
                    <nciodm:CDISCDefinition>Clinical COPD Questionnaire 1 Week Version - On average, during the past 7 days, how limited were you in these activities because of your breathing problems: Moderate physical activities?</nciodm:CDISCDefinition>
                    <nciodm:PreferredTerm>CCQ 1 Week Version - Breathing Problems Limit Moderate Activity</nciodm:PreferredTerm>
                </EnumeratedItem>
                <EnumeratedItem CodedValue="CCQ0209" nciodm:ExtCodeID="C119140">
                    <nciodm:CDISCSynonym>CCQ02-Breathing Limit Daily Activity</nciodm:CDISCSynonym>
                    <nciodm:CDISCDefinition>Clinical COPD Questionnaire 1 Week Version - On average, during the past 7 days, how limited were you in these activities because of your breathing problems: Daily activities at home?</nciodm:CDISCDefinition>
                    <nciodm:PreferredTerm>CCQ 1 Week Version - Breathing Problems Limit Daily Activity</nciodm:PreferredTerm>
                </EnumeratedItem>
                <EnumeratedItem CodedValue="CCQ0210" nciodm:ExtCodeID="C119141">
                    <nciodm:CDISCSynonym>CCQ02-Breathing Limit Social Activity</nciodm:CDISCSynonym>
                    <nciodm:CDISCDefinition>Clinical COPD Questionnaire 1 Week Version - On average, during the past 7 days, how limited were you in these activities because of your breathing problems: Social activities?</nciodm:CDISCDefinition>
                    <nciodm:PreferredTerm>CCQ 1 Week Version - Breathing Problems Limit Social Activity</nciodm:PreferredTerm>
                </EnumeratedItem>
                <nciodm:CDISCSubmissionValue>CCQ 1 WEEK VERSION TESTCD</nciodm:CDISCSubmissionValue>
                <nciodm:CDISCSynonym>Clinical COPD Questionnaire 1 Week Version Test Code</nciodm:CDISCSynonym>
                <nciodm:PreferredTerm>CDISC Questionnaire CCQ 1 Week Version Test Code Terminology</nciodm:PreferredTerm>
            </CodeList>
            
