<CodeList xmlns="http://www.cdisc.org/ns/odm/v1.3" xmlns:nciodm="http://ncicb.nci.nih.gov/xml/odm/EVS/CDISC" xmlns:xs="http://www.w3.org/2001/XMLSchema-instance" OID="CL.C116107.DTHDX" Name="SDTM Death Diagnosis Test Name" DataType="text" nciodm:ExtCodeID="C116107" nciodm:CodeListExtensible="Yes">
                <Description>
                    <TranslatedText xml:lang="en">Terminology relevant to the test names that describe the death diagnosis.</TranslatedText>
                </Description>
                <EnumeratedItem CodedValue="Age at Death" nciodm:ExtCodeID="C135383">
                    <nciodm:CDISCSynonym>Age at Death</nciodm:CDISCSynonym>
                    <nciodm:CDISCDefinition>The age at which death occurred. (NCI)</nciodm:CDISCDefinition>
                    <nciodm:PreferredTerm>Age at Death</nciodm:PreferredTerm>
                </EnumeratedItem>
                <EnumeratedItem CodedValue="Autopsy Indicator" nciodm:ExtCodeID="C135384">
                    <nciodm:CDISCSynonym>Autopsy Indicator</nciodm:CDISCSynonym>
                    <nciodm:CDISCDefinition>An indication as to whether an autopsy was performed. (NCI)</nciodm:CDISCDefinition>
                    <nciodm:PreferredTerm>Autopsy Indicator</nciodm:PreferredTerm>
                </EnumeratedItem>
                <EnumeratedItem CodedValue="Death Certificate Obtained Indicator" nciodm:ExtCodeID="C135385">
                    <nciodm:CDISCSynonym>Death Certificate Obtained Indicator</nciodm:CDISCSynonym>
                    <nciodm:CDISCDefinition>An indication as to whether a death certificate was obtained. (NCI)</nciodm:CDISCDefinition>
                    <nciodm:PreferredTerm>Death Certification Indicator</nciodm:PreferredTerm>
                </EnumeratedItem>
                <EnumeratedItem CodedValue="Hospital Medical Record Obtained Ind" nciodm:ExtCodeID="C135386">
                    <nciodm:CDISCSynonym>Hospital Medical Record Obtained Ind</nciodm:CDISCSynonym>
                    <nciodm:CDISCSynonym>Hospital Medical Record Obtained Indicator</nciodm:CDISCSynonym>
                    <nciodm:CDISCDefinition>An indication as to whether a hospital medical record was obtained.</nciodm:CDISCDefinition>
                    <nciodm:PreferredTerm>Hospital Medical Record Indicator</nciodm:PreferredTerm>
                </EnumeratedItem>
                <EnumeratedItem CodedValue="Location of Death" nciodm:ExtCodeID="C124331">
                    <nciodm:CDISCSynonym>Location of Death</nciodm:CDISCSynonym>
                    <nciodm:CDISCDefinition>The physical location at which the subject ceased to live.</nciodm:CDISCDefinition>
                    <nciodm:PreferredTerm>Location of Death</nciodm:PreferredTerm>
                </EnumeratedItem>
                <EnumeratedItem CodedValue="Primary Cause of Death" nciodm:ExtCodeID="C99531">
                    <nciodm:CDISCSynonym>Primary Cause of Death</nciodm:CDISCSynonym>
                    <nciodm:CDISCDefinition>The primary significant event which ultimately led to death.</nciodm:CDISCDefinition>
                    <nciodm:PreferredTerm>Primary Cause of Death</nciodm:PreferredTerm>
                </EnumeratedItem>
                <EnumeratedItem CodedValue="Secondary Cause of Death" nciodm:ExtCodeID="C116142">
                    <nciodm:CDISCSynonym>Secondary Cause of Death</nciodm:CDISCSynonym>
                    <nciodm:CDISCDefinition>The secondary significant event which ultimately led to death.</nciodm:CDISCDefinition>
                    <nciodm:PreferredTerm>Secondary Cause of Death</nciodm:PreferredTerm>
                </EnumeratedItem>
                <nciodm:CDISCSubmissionValue>DTHDX</nciodm:CDISCSubmissionValue>
                <nciodm:CDISCSynonym>SDTM Death Diagnosis Test Name</nciodm:CDISCSynonym>
                <nciodm:PreferredTerm>CDISC SDTM Death Diagnosis Test Name Terminology</nciodm:PreferredTerm>
            </CodeList>
            
