<CodeList xmlns="http://www.cdisc.org/ns/odm/v1.3" xmlns:nciodm="http://ncicb.nci.nih.gov/xml/odm/EVS/CDISC" xmlns:xs="http://www.w3.org/2001/XMLSchema-instance" OID="CL.C124671.RCVD01TN" Name="Reynolds Cardiovascular Disease 10-Year Risk Score Clinical Classification Test Name" DataType="text" nciodm:ExtCodeID="C124671" nciodm:CodeListExtensible="No">
                <Description>
                    <TranslatedText xml:lang="en">Reynolds Cardiovascular Disease 10-Year Risk Score test name.</TranslatedText>
                </Description>
                <EnumeratedItem CodedValue="RCVD01-Reynolds CVD 10-Year Risk Score" nciodm:ExtCodeID="C124723">
                    <nciodm:CDISCSynonym>RCVD01-Reynolds CVD 10-Year Risk Score</nciodm:CDISCSynonym>
                    <nciodm:CDISCDefinition>Reynolds Cardiovascular Disease 10-Year Risk Score - Cardiovascular disease 10-year risk score.</nciodm:CDISCDefinition>
                    <nciodm:PreferredTerm>Reynolds CVD 10-Year Risk Score - Risk Score</nciodm:PreferredTerm>
                </EnumeratedItem>
                <nciodm:CDISCSubmissionValue>RCVD01TN</nciodm:CDISCSubmissionValue>
                <nciodm:CDISCSynonym>Reynolds Cardiovascular Disease 10-Year Risk Score Clinical Classification Test Name</nciodm:CDISCSynonym>
                <nciodm:PreferredTerm>CDISC Clinical Classification Reynolds CVD 10-Year Risk Score Test Name Terminology</nciodm:PreferredTerm>
            </CodeList>
            
