<CodeList xmlns="http://www.cdisc.org/ns/odm/v1.3" xmlns:nciodm="http://ncicb.nci.nih.gov/xml/odm/EVS/CDISC" xmlns:xs="http://www.w3.org/2001/XMLSchema-instance" OID="CL.C100154.FPSR1TC" Name="Faces Pain Scale - Revised Questionnaire Test Code" DataType="text" nciodm:ExtCodeID="C100154" nciodm:CodeListExtensible="No">
                <Description>
                    <TranslatedText xml:lang="en">Faces Pain Scale - Revised test code.</TranslatedText>
                </Description>
                <EnumeratedItem CodedValue="FPSR101" nciodm:ExtCodeID="C101013">
                    <nciodm:CDISCSynonym>FPSR1-How Much do you Hurt</nciodm:CDISCSynonym>
                    <nciodm:CDISCDefinition>Faces Pain Scale - Revised - Point to the face that shows how much you hurt [right now].</nciodm:CDISCDefinition>
                    <nciodm:PreferredTerm>FPSR - How Much do You Hurt</nciodm:PreferredTerm>
                </EnumeratedItem>
                <nciodm:CDISCSubmissionValue>FPSR1TC</nciodm:CDISCSubmissionValue>
                <nciodm:CDISCSynonym>Faces Pain Scale - Revised Questionnaire Test Code</nciodm:CDISCSynonym>
                <nciodm:PreferredTerm>CDISC Questionnaire FPSR Test Code Terminology</nciodm:PreferredTerm>
            </CodeList>
            
