<CodeList xmlns="http://www.cdisc.org/ns/odm/v1.3" xmlns:nciodm="http://ncicb.nci.nih.gov/xml/odm/EVS/CDISC" xmlns:xs="http://www.w3.org/2001/XMLSchema-instance" OID="CL.C129091.FAC028TN" Name="National Comprehensive Cancer Network/Functional Assessment of Cancer Therapy-Bladder Symptom Index-18 Version 2 Questionnaire Test Name" DataType="text" nciodm:ExtCodeID="C129091" nciodm:CodeListExtensible="No">
                <Description>
                    <TranslatedText xml:lang="en">National Comprehensive Cancer Network/Functional Assessment of Cancer Therapy-Bladder Symptom Index-18 Version 2 test name.</TranslatedText>
                </Description>
                <EnumeratedItem CodedValue="FAC028-Able to Have/Maintain Erection" nciodm:ExtCodeID="C129177">
                    <nciodm:CDISCSynonym>FAC028-Able to Have/Maintain Erection</nciodm:CDISCSynonym>
                    <nciodm:CDISCDefinition>National Comprehensive Cancer Network/Functional Assessment of Cancer Therapy-Bladder Symptom Index-18 Version 2 - (For men only) I am able to have and maintain an erection.</nciodm:CDISCDefinition>
                    <nciodm:PreferredTerm>NCCN-FACT FBLSI-18 Version 2 - Able to Have, Maintain Erection</nciodm:PreferredTerm>
                </EnumeratedItem>
                <EnumeratedItem CodedValue="FAC028-Bothered by Treatment Side Effect" nciodm:ExtCodeID="C129185">
                    <nciodm:CDISCSynonym>FAC028-Bothered by Treatment Side Effect</nciodm:CDISCSynonym>
                    <nciodm:CDISCDefinition>National Comprehensive Cancer Network/Functional Assessment of Cancer Therapy-Bladder Symptom Index-18 Version 2 - I am bothered by side effects of treatment.</nciodm:CDISCDefinition>
                    <nciodm:PreferredTerm>NCCN-FACT FBLSI-18 Version 2 - Bothered by Treatment Side Effect</nciodm:PreferredTerm>
                </EnumeratedItem>
                <EnumeratedItem CodedValue="FAC028-Content With Quality of My Life" nciodm:ExtCodeID="C129187">
                    <nciodm:CDISCSynonym>FAC028-Content With Quality of My Life</nciodm:CDISCSynonym>
                    <nciodm:CDISCDefinition>National Comprehensive Cancer Network/Functional Assessment of Cancer Therapy-Bladder Symptom Index-18 Version 2 - I am content with the quality of my life right now.</nciodm:CDISCDefinition>
                    <nciodm:PreferredTerm>NCCN-FACT FBLSI-18 Version 2 - Content With Quality of My Life</nciodm:PreferredTerm>
                </EnumeratedItem>
                <EnumeratedItem CodedValue="FAC028-Have Trouble Controlling My Urine" nciodm:ExtCodeID="C129172">
                    <nciodm:CDISCSynonym>FAC028-Have Trouble Controlling My Urine</nciodm:CDISCSynonym>
                    <nciodm:CDISCDefinition>National Comprehensive Cancer Network/Functional Assessment of Cancer Therapy-Bladder Symptom Index-18 Version 2 - I have trouble controlling my urine.</nciodm:CDISCDefinition>
                    <nciodm:PreferredTerm>NCCN-FACT FBLSI-18 Version 2 - Have Trouble Controlling My Urine</nciodm:PreferredTerm>
                </EnumeratedItem>
                <EnumeratedItem CodedValue="FAC028-I Am Able to Enjoy Life" nciodm:ExtCodeID="C129186">
                    <nciodm:CDISCSynonym>FAC028-I Am Able to Enjoy Life</nciodm:CDISCSynonym>
                    <nciodm:CDISCDefinition>National Comprehensive Cancer Network/Functional Assessment of Cancer Therapy-Bladder Symptom Index-18 Version 2 - I am able to enjoy life.</nciodm:CDISCDefinition>
                    <nciodm:PreferredTerm>NCCN-FACT FBLSI-18 Version 2 - I Am Able to Enjoy Life</nciodm:PreferredTerm>
                </EnumeratedItem>
                <EnumeratedItem CodedValue="FAC028-I Am Losing Weight" nciodm:ExtCodeID="C129171">
                    <nciodm:CDISCSynonym>FAC028-I Am Losing Weight</nciodm:CDISCSynonym>
                    <nciodm:CDISCDefinition>National Comprehensive Cancer Network/Functional Assessment of Cancer Therapy-Bladder Symptom Index-18 Version 2 - I am losing weight.</nciodm:CDISCDefinition>
                    <nciodm:PreferredTerm>NCCN-FACT FBLSI-18 Version 2 - I Am Losing Weight</nciodm:PreferredTerm>
                </EnumeratedItem>
                <EnumeratedItem CodedValue="FAC028-I Am Sleeping Well" nciodm:ExtCodeID="C129178">
                    <nciodm:CDISCSynonym>FAC028-I Am Sleeping Well</nciodm:CDISCSynonym>
                    <nciodm:CDISCDefinition>National Comprehensive Cancer Network/Functional Assessment of Cancer Therapy-Bladder Symptom Index-18 Version 2 - I am sleeping well.</nciodm:CDISCDefinition>
                    <nciodm:PreferredTerm>NCCN-FACT FBLSI-18 Version 2 - I Am Sleeping Well</nciodm:PreferredTerm>
                </EnumeratedItem>
                <EnumeratedItem CodedValue="FAC028-I Feel Ill" nciodm:ExtCodeID="C129183">
                    <nciodm:CDISCSynonym>FAC028-I Feel Ill</nciodm:CDISCSynonym>
                    <nciodm:CDISCDefinition>National Comprehensive Cancer Network/Functional Assessment of Cancer Therapy-Bladder Symptom Index-18 Version 2 - I feel ill.</nciodm:CDISCDefinition>
                    <nciodm:PreferredTerm>NCCN-FACT FBLSI-18 Version 2 - I Feel Ill</nciodm:PreferredTerm>
                </EnumeratedItem>
                <EnumeratedItem CodedValue="FAC028-I Feel Light-headed" nciodm:ExtCodeID="C129174">
                    <nciodm:CDISCSynonym>FAC028-I Feel Light-headed</nciodm:CDISCSynonym>
                    <nciodm:CDISCDefinition>National Comprehensive Cancer Network/Functional Assessment of Cancer Therapy-Bladder Symptom Index-18 Version 2 - I feel light-headed (dizzy).</nciodm:CDISCDefinition>
                    <nciodm:PreferredTerm>NCCN-FACT FBLSI-18 Version 2 - I Feel Light-headed</nciodm:PreferredTerm>
                </EnumeratedItem>
                <EnumeratedItem CodedValue="FAC028-I Feel Sad" nciodm:ExtCodeID="C129180">
                    <nciodm:CDISCSynonym>FAC028-I Feel Sad</nciodm:CDISCSynonym>
                    <nciodm:CDISCDefinition>National Comprehensive Cancer Network/Functional Assessment of Cancer Therapy-Bladder Symptom Index-18 Version 2 - I feel sad.</nciodm:CDISCDefinition>
                    <nciodm:PreferredTerm>NCCN-FACT FBLSI-18 Version 2 - I Feel Sad</nciodm:PreferredTerm>
                </EnumeratedItem>
                <EnumeratedItem CodedValue="FAC028-I Feel Weak All Over" nciodm:ExtCodeID="C129173">
                    <nciodm:CDISCSynonym>FAC028-I Feel Weak All Over</nciodm:CDISCSynonym>
                    <nciodm:CDISCDefinition>National Comprehensive Cancer Network/Functional Assessment of Cancer Therapy-Bladder Symptom Index-18 Version 2 - I feel weak all over.</nciodm:CDISCDefinition>
                    <nciodm:PreferredTerm>NCCN-FACT FBLSI-18 Version 2 - I Feel Weak All Over</nciodm:PreferredTerm>
                </EnumeratedItem>
                <EnumeratedItem CodedValue="FAC028-I Have a Good Appetite" nciodm:ExtCodeID="C129176">
                    <nciodm:CDISCSynonym>FAC028-I Have a Good Appetite</nciodm:CDISCSynonym>
                    <nciodm:CDISCDefinition>National Comprehensive Cancer Network/Functional Assessment of Cancer Therapy-Bladder Symptom Index-18 Version 2 - I have a good appetite.</nciodm:CDISCDefinition>
                    <nciodm:PreferredTerm>NCCN-FACT FBLSI-18 Version 2 - I Have a Good Appetite</nciodm:PreferredTerm>
                </EnumeratedItem>
                <EnumeratedItem CodedValue="FAC028-I Have a Lack of Energy" nciodm:ExtCodeID="C129182">
                    <nciodm:CDISCSynonym>FAC028-I Have a Lack of Energy</nciodm:CDISCSynonym>
                    <nciodm:CDISCDefinition>National Comprehensive Cancer Network/Functional Assessment of Cancer Therapy-Bladder Symptom Index-18 Version 2 - I have a lack of energy.</nciodm:CDISCDefinition>
                    <nciodm:PreferredTerm>NCCN-FACT FBLSI-18 Version 2 - I Have a Lack of Energy</nciodm:PreferredTerm>
                </EnumeratedItem>
                <EnumeratedItem CodedValue="FAC028-I Have Control of My Bowels" nciodm:ExtCodeID="C129184">
                    <nciodm:CDISCSynonym>FAC028-I Have Control of My Bowels</nciodm:CDISCSynonym>
                    <nciodm:CDISCDefinition>National Comprehensive Cancer Network/Functional Assessment of Cancer Therapy-Bladder Symptom Index-18 Version 2 - I have control of my bowels.</nciodm:CDISCDefinition>
                    <nciodm:PreferredTerm>NCCN-FACT FBLSI-18 Version 2 - I Have Control of My Bowels</nciodm:PreferredTerm>
                </EnumeratedItem>
                <EnumeratedItem CodedValue="FAC028-I Have Nausea" nciodm:ExtCodeID="C129181">
                    <nciodm:CDISCSynonym>FAC028-I Have Nausea</nciodm:CDISCSynonym>
                    <nciodm:CDISCDefinition>National Comprehensive Cancer Network/Functional Assessment of Cancer Therapy-Bladder Symptom Index-18 Version 2 - I have nausea.</nciodm:CDISCDefinition>
                    <nciodm:PreferredTerm>NCCN-FACT FBLSI-18 Version 2 - I Have Nausea</nciodm:PreferredTerm>
                </EnumeratedItem>
                <EnumeratedItem CodedValue="FAC028-I Have Pain" nciodm:ExtCodeID="C129170">
                    <nciodm:CDISCSynonym>FAC028-I Have Pain</nciodm:CDISCSynonym>
                    <nciodm:CDISCDefinition>National Comprehensive Cancer Network/Functional Assessment of Cancer Therapy-Bladder Symptom Index-18 Version 2 - I have pain.</nciodm:CDISCDefinition>
                    <nciodm:PreferredTerm>NCCN-FACT FBLSI-18 Version 2 - I Have Pain</nciodm:PreferredTerm>
                </EnumeratedItem>
                <EnumeratedItem CodedValue="FAC028-Trouble Meeting Needs of Family" nciodm:ExtCodeID="C129175">
                    <nciodm:CDISCSynonym>FAC028-Trouble Meeting Needs of Family</nciodm:CDISCSynonym>
                    <nciodm:CDISCDefinition>National Comprehensive Cancer Network/Functional Assessment of Cancer Therapy-Bladder Symptom Index-18 Version 2 - Because of my physical condition, I have trouble meeting the needs of my family.</nciodm:CDISCDefinition>
                    <nciodm:PreferredTerm>NCCN-FACT FBLSI-18 Version 2 - Trouble Meeting Needs of Family</nciodm:PreferredTerm>
                </EnumeratedItem>
                <EnumeratedItem CodedValue="FAC028-Worry My Condition Will Get Worse" nciodm:ExtCodeID="C129179">
                    <nciodm:CDISCSynonym>FAC028-Worry My Condition Will Get Worse</nciodm:CDISCSynonym>
                    <nciodm:CDISCDefinition>National Comprehensive Cancer Network/Functional Assessment of Cancer Therapy-Bladder Symptom Index-18 Version 2 - I worry that my condition will get worse.</nciodm:CDISCDefinition>
                    <nciodm:PreferredTerm>NCCN-FACT FBLSI-18 Version 2 - Worry My Condition Will Get Worse</nciodm:PreferredTerm>
                </EnumeratedItem>
                <nciodm:CDISCSubmissionValue>FAC028TN</nciodm:CDISCSubmissionValue>
                <nciodm:CDISCSynonym>National Comprehensive Cancer Network/Functional Assessment of Cancer Therapy-Bladder Symptom Index-18 Version 2 Questionnaire Test Name</nciodm:CDISCSynonym>
                <nciodm:PreferredTerm>CDISC Questionnaire NCCN-FACT FBLSI-18 Version 2 Test Name Terminology</nciodm:PreferredTerm>
            </CodeList>
            
