<CodeList xmlns="http://www.cdisc.org/ns/odm/v1.3" xmlns:nciodm="http://ncicb.nci.nih.gov/xml/odm/EVS/CDISC" xmlns:xs="http://www.w3.org/2001/XMLSchema-instance" OID="CL.C124664.TANN01TC" Name="Tanner Scale Girl Clinical Classification Test Code" DataType="text" nciodm:ExtCodeID="C124664" nciodm:CodeListExtensible="No">
                <Description>
                    <TranslatedText xml:lang="en">Tanner Scale Girl test code.</TranslatedText>
                </Description>
                <EnumeratedItem CodedValue="TANN0101" nciodm:ExtCodeID="C124718">
                    <nciodm:CDISCSynonym>TANN01-Breast Stages</nciodm:CDISCSynonym>
                    <nciodm:CDISCDefinition>Tanner Scale Girl - Breast stages.</nciodm:CDISCDefinition>
                    <nciodm:PreferredTerm>Tanner Scale-Girl - Breast Stages</nciodm:PreferredTerm>
                </EnumeratedItem>
                <EnumeratedItem CodedValue="TANN0102" nciodm:ExtCodeID="C124719">
                    <nciodm:CDISCSynonym>TANN01-Pubic Hair Stages</nciodm:CDISCSynonym>
                    <nciodm:CDISCDefinition>Tanner Scale Girl - Pubic hair stages.</nciodm:CDISCDefinition>
                    <nciodm:PreferredTerm>Tanner Scale-Girl - Pubic Hair Stages</nciodm:PreferredTerm>
                </EnumeratedItem>
                <nciodm:CDISCSubmissionValue>TANN01TC</nciodm:CDISCSubmissionValue>
                <nciodm:CDISCSynonym>Tanner Scale Girl Clinical Classification Test Code</nciodm:CDISCSynonym>
                <nciodm:PreferredTerm>CDISC Clinical Classification Tanner Scale-Girl Test Code Terminology</nciodm:PreferredTerm>
            </CodeList>
            
