<CodeList xmlns="http://www.cdisc.org/ns/odm/v1.3" xmlns:nciodm="http://ncicb.nci.nih.gov/xml/odm/EVS/CDISC" xmlns:xs="http://www.w3.org/2001/XMLSchema-instance" OID="CL.C112446.PDDS TEST" Name="Patient Determined Disease Steps Questionnaire Test Name" DataType="text" nciodm:ExtCodeID="C112446" nciodm:CodeListExtensible="No">
                <Description>
                    <TranslatedText xml:lang="en">Patient Determined Disease Steps test name.</TranslatedText>
                </Description>
                <EnumeratedItem CodedValue="PDDS01-Category Describing Situation" nciodm:ExtCodeID="C112626">
                    <nciodm:CDISCSynonym>PDDS01-Category Describing Situation</nciodm:CDISCSynonym>
                    <nciodm:CDISCDefinition>Patient Determined Disease Steps - This scale focuses mainly on how well you walk. You might not find a description that reflects your condition exactly, but please mark the one category that describes your situation the closest.</nciodm:CDISCDefinition>
                    <nciodm:PreferredTerm>PDDS - Category Describing Situation</nciodm:PreferredTerm>
                </EnumeratedItem>
                <nciodm:CDISCSubmissionValue>PDDS TEST</nciodm:CDISCSubmissionValue>
                <nciodm:CDISCSynonym>Patient Determined Disease Steps Questionnaire Test Name</nciodm:CDISCSynonym>
                <nciodm:PreferredTerm>CDISC Questionnaire PDDS Test Name Terminology</nciodm:PreferredTerm>
            </CodeList>
            
