<CodeList xmlns="http://www.cdisc.org/ns/odm/v1.3" xmlns:nciodm="http://ncicb.nci.nih.gov/xml/odm/EVS/CDISC" xmlns:xs="http://www.w3.org/2001/XMLSchema-instance" OID="CL.C66769.AESEV" Name="Severity/Intensity Scale for Adverse Events" DataType="text" nciodm:ExtCodeID="C66769" nciodm:CodeListExtensible="No">
                <Description>
                    <TranslatedText xml:lang="en">A scale that defines the degree or state of disease existing in a patient as a result of the occurrence of an adverse event. (NCI)</TranslatedText>
                </Description>
                <EnumeratedItem CodedValue="MILD" nciodm:ExtCodeID="C41338">
                    <nciodm:CDISCSynonym>1</nciodm:CDISCSynonym>
                    <nciodm:CDISCSynonym>Grade 1</nciodm:CDISCSynonym>
                    <nciodm:CDISCDefinition>A type of adverse event that is usually transient and may require only minimal treatment or therapeutic intervention. The event does not generally interfere with usual activities of daily living.</nciodm:CDISCDefinition>
                    <nciodm:PreferredTerm>Mild Adverse Event</nciodm:PreferredTerm>
                </EnumeratedItem>
                <EnumeratedItem CodedValue="MODERATE" nciodm:ExtCodeID="C41339">
                    <nciodm:CDISCSynonym>2</nciodm:CDISCSynonym>
                    <nciodm:CDISCSynonym>Grade 2</nciodm:CDISCSynonym>
                    <nciodm:CDISCDefinition>A type of adverse event that is usually alleviated with additional specific therapeutic intervention. The event interferes with usual activities of daily living, causing discomfort but poses no significant or permanent risk of harm to the research participant.</nciodm:CDISCDefinition>
                    <nciodm:PreferredTerm>Moderate Adverse Event</nciodm:PreferredTerm>
                </EnumeratedItem>
                <EnumeratedItem CodedValue="SEVERE" nciodm:ExtCodeID="C41340">
                    <nciodm:CDISCSynonym>3</nciodm:CDISCSynonym>
                    <nciodm:CDISCSynonym>Grade 3</nciodm:CDISCSynonym>
                    <nciodm:CDISCDefinition>A type of adverse event that interrupts usual activities of daily living, or significantly affects clinical status, or may require intensive therapeutic intervention.</nciodm:CDISCDefinition>
                    <nciodm:PreferredTerm>Severe Adverse Event</nciodm:PreferredTerm>
                </EnumeratedItem>
                <nciodm:CDISCSubmissionValue>AESEV</nciodm:CDISCSubmissionValue>
                <nciodm:CDISCSynonym>Severity/Intensity Scale for Adverse Events</nciodm:CDISCSynonym>
                <nciodm:PreferredTerm>CDISC SDTM Severity Intensity Scale for Adverse Event Terminology</nciodm:PreferredTerm>
            </CodeList>
            
