<CodeList xmlns="http://www.cdisc.org/ns/odm/v1.3" xmlns:nciodm="http://ncicb.nci.nih.gov/xml/odm/EVS/CDISC" xmlns:xs="http://www.w3.org/2001/XMLSchema-instance" OID="CL.C129096.FAC049TC" Name="Functional Assessment of Cancer Therapy-Ovarian Symptom Index Questionnaire Test Code" DataType="text" nciodm:ExtCodeID="C129096" nciodm:CodeListExtensible="No">
                <Description>
                    <TranslatedText xml:lang="en">Functional Assessment of Cancer Therapy-Ovarian Symptom Index test code.</TranslatedText>
                </Description>
                <EnumeratedItem CodedValue="FAC04901" nciodm:ExtCodeID="C129225">
                    <nciodm:CDISCSynonym>FAC049-I Have a Lack of Energy</nciodm:CDISCSynonym>
                    <nciodm:CDISCDefinition>Functional Assessment of Cancer Therapy-Ovarian Symptom Index - I have a lack of energy.</nciodm:CDISCDefinition>
                    <nciodm:PreferredTerm>FOSI - I Have a Lack of Energy</nciodm:PreferredTerm>
                </EnumeratedItem>
                <EnumeratedItem CodedValue="FAC04902" nciodm:ExtCodeID="C129226">
                    <nciodm:CDISCSynonym>FAC049-I Have Been Vomiting</nciodm:CDISCSynonym>
                    <nciodm:CDISCDefinition>Functional Assessment of Cancer Therapy-Ovarian Symptom Index - I have been vomiting.</nciodm:CDISCDefinition>
                    <nciodm:PreferredTerm>FOSI - I Have Been Vomiting</nciodm:PreferredTerm>
                </EnumeratedItem>
                <EnumeratedItem CodedValue="FAC04903" nciodm:ExtCodeID="C129227">
                    <nciodm:CDISCSynonym>FAC049-I Have Pain</nciodm:CDISCSynonym>
                    <nciodm:CDISCDefinition>Functional Assessment of Cancer Therapy-Ovarian Symptom Index - I have pain.</nciodm:CDISCDefinition>
                    <nciodm:PreferredTerm>FOSI - I Have Pain</nciodm:PreferredTerm>
                </EnumeratedItem>
                <EnumeratedItem CodedValue="FAC04904" nciodm:ExtCodeID="C129228">
                    <nciodm:CDISCSynonym>FAC049-I Have Nausea</nciodm:CDISCSynonym>
                    <nciodm:CDISCDefinition>Functional Assessment of Cancer Therapy-Ovarian Symptom Index - I have nausea.</nciodm:CDISCDefinition>
                    <nciodm:PreferredTerm>FOSI - I Have Nausea</nciodm:PreferredTerm>
                </EnumeratedItem>
                <EnumeratedItem CodedValue="FAC04905" nciodm:ExtCodeID="C129229">
                    <nciodm:CDISCSynonym>FAC049-I Have Swelling in Stomach Area</nciodm:CDISCSynonym>
                    <nciodm:CDISCDefinition>Functional Assessment of Cancer Therapy-Ovarian Symptom Index - I have swelling in my stomach area.</nciodm:CDISCDefinition>
                    <nciodm:PreferredTerm>FOSI - I Have Swelling in Stomach Area</nciodm:PreferredTerm>
                </EnumeratedItem>
                <EnumeratedItem CodedValue="FAC04906" nciodm:ExtCodeID="C129230">
                    <nciodm:CDISCSynonym>FAC049-Worry My Condition Will Get Worse</nciodm:CDISCSynonym>
                    <nciodm:CDISCDefinition>Functional Assessment of Cancer Therapy-Ovarian Symptom Index - I worry that my condition will get worse.</nciodm:CDISCDefinition>
                    <nciodm:PreferredTerm>FOSI - Worry My Condition Will Get Worse</nciodm:PreferredTerm>
                </EnumeratedItem>
                <EnumeratedItem CodedValue="FAC04907" nciodm:ExtCodeID="C129231">
                    <nciodm:CDISCSynonym>FAC049-Content With Quality of My Life</nciodm:CDISCSynonym>
                    <nciodm:CDISCDefinition>Functional Assessment of Cancer Therapy-Ovarian Symptom Index - I am content with the quality of my life right now.</nciodm:CDISCDefinition>
                    <nciodm:PreferredTerm>FOSI - Content With Quality of My Life</nciodm:PreferredTerm>
                </EnumeratedItem>
                <EnumeratedItem CodedValue="FAC04908" nciodm:ExtCodeID="C129232">
                    <nciodm:CDISCSynonym>FAC049-I Have Cramps in My Stomach Area</nciodm:CDISCSynonym>
                    <nciodm:CDISCDefinition>Functional Assessment of Cancer Therapy-Ovarian Symptom Index - I have cramps in my stomach area.</nciodm:CDISCDefinition>
                    <nciodm:PreferredTerm>FOSI - I Have Cramps in My Stomach Area</nciodm:PreferredTerm>
                </EnumeratedItem>
                <nciodm:CDISCSubmissionValue>FAC049TC</nciodm:CDISCSubmissionValue>
                <nciodm:CDISCSynonym>Functional Assessment of Cancer Therapy-Ovarian Symptom Index Questionnaire Test Code</nciodm:CDISCSynonym>
                <nciodm:PreferredTerm>CDISC Questionnaire FOSI Test Code Terminology</nciodm:PreferredTerm>
            </CodeList>
            
