<CodeList xmlns="http://www.cdisc.org/ns/odm/v1.3" xmlns:nciodm="http://ncicb.nci.nih.gov/xml/odm/EVS/CDISC" xmlns:xs="http://www.w3.org/2001/XMLSchema-instance" OID="CL.C135682.BEBQ02TC" Name="Baby Eating Behaviour Questionnaire Retrospective Version Questionnaire Test Code" DataType="text" nciodm:ExtCodeID="C135682" nciodm:CodeListExtensible="No">
                <Description>
                    <TranslatedText xml:lang="en">Baby Eating Behaviour Questionnaire Retrospective Version test code.</TranslatedText>
                </Description>
                <EnumeratedItem CodedValue="BEBQ0201" nciodm:ExtCodeID="C135793">
                    <nciodm:CDISCSynonym>BEBQ02-Baby Seemed Contented Feeding</nciodm:CDISCSynonym>
                    <nciodm:CDISCDefinition>Baby Eating Behaviour Questionnaire - Retrospective - My baby seemed contented while feeding.</nciodm:CDISCDefinition>
                    <nciodm:PreferredTerm>BEBQ Retrospective Version - Baby Seemed Contented Feeding</nciodm:PreferredTerm>
                </EnumeratedItem>
                <EnumeratedItem CodedValue="BEBQ0202" nciodm:ExtCodeID="C135794">
                    <nciodm:CDISCSynonym>BEBQ02-Baby Frequently Wanted More Milk</nciodm:CDISCSynonym>
                    <nciodm:CDISCDefinition>Baby Eating Behaviour Questionnaire - Retrospective - My baby frequently wanted more milk than I provided.</nciodm:CDISCDefinition>
                    <nciodm:PreferredTerm>BEBQ Retrospective Version - Baby Frequently Wanted More Milk</nciodm:PreferredTerm>
                </EnumeratedItem>
                <EnumeratedItem CodedValue="BEBQ0203" nciodm:ExtCodeID="C135795">
                    <nciodm:CDISCSynonym>BEBQ02-Baby Loved Milk</nciodm:CDISCSynonym>
                    <nciodm:CDISCDefinition>Baby Eating Behaviour Questionnaire - Retrospective - My baby loved milk.</nciodm:CDISCDefinition>
                    <nciodm:PreferredTerm>BEBQ Retrospective Version - Baby Loved Milk</nciodm:PreferredTerm>
                </EnumeratedItem>
                <EnumeratedItem CodedValue="BEBQ0204" nciodm:ExtCodeID="C135796">
                    <nciodm:CDISCSynonym>BEBQ02-Baby Had a Big Appetite</nciodm:CDISCSynonym>
                    <nciodm:CDISCDefinition>Baby Eating Behaviour Questionnaire - Retrospective - My baby had a big appetite.</nciodm:CDISCDefinition>
                    <nciodm:PreferredTerm>BEBQ Retrospective Version - Baby Had a Big Appetite</nciodm:PreferredTerm>
                </EnumeratedItem>
                <EnumeratedItem CodedValue="BEBQ0205" nciodm:ExtCodeID="C135797">
                    <nciodm:CDISCSynonym>BEBQ02-Baby Finished Feeding Quickly</nciodm:CDISCSynonym>
                    <nciodm:CDISCDefinition>Baby Eating Behaviour Questionnaire - Retrospective - My baby finished feeding quickly.</nciodm:CDISCDefinition>
                    <nciodm:PreferredTerm>BEBQ Retrospective Version - Baby Finished Feeding Quickly</nciodm:PreferredTerm>
                </EnumeratedItem>
                <EnumeratedItem CodedValue="BEBQ0206" nciodm:ExtCodeID="C135798">
                    <nciodm:CDISCSynonym>BEBQ02-Baby Became Distressed Feeding</nciodm:CDISCSynonym>
                    <nciodm:CDISCDefinition>Baby Eating Behaviour Questionnaire - Retrospective - My baby became distressed while feeding.</nciodm:CDISCDefinition>
                    <nciodm:PreferredTerm>BEBQ Retrospective Version - Baby Became Distressed Feeding</nciodm:PreferredTerm>
                </EnumeratedItem>
                <EnumeratedItem CodedValue="BEBQ0207" nciodm:ExtCodeID="C135799">
                    <nciodm:CDISCSynonym>BEBQ02-Baby Got Full Up Easily</nciodm:CDISCSynonym>
                    <nciodm:CDISCDefinition>Baby Eating Behaviour Questionnaire - Retrospective - My baby got full up easily.</nciodm:CDISCDefinition>
                    <nciodm:PreferredTerm>BEBQ Retrospective Version - Baby Got Full Up Easily</nciodm:PreferredTerm>
                </EnumeratedItem>
                <EnumeratedItem CodedValue="BEBQ0208" nciodm:ExtCodeID="C135800">
                    <nciodm:CDISCSynonym>BEBQ02-Baby Would Take Too Much Milk</nciodm:CDISCSynonym>
                    <nciodm:CDISCDefinition>Baby Eating Behaviour Questionnaire - Retrospective - If allowed to, my baby would take too much milk.</nciodm:CDISCDefinition>
                    <nciodm:PreferredTerm>BEBQ Retrospective Version - Baby Would Take Too Much Milk</nciodm:PreferredTerm>
                </EnumeratedItem>
                <EnumeratedItem CodedValue="BEBQ0209" nciodm:ExtCodeID="C135801">
                    <nciodm:CDISCSynonym>BEBQ02-Baby Took More Than 30 Minutes</nciodm:CDISCSynonym>
                    <nciodm:CDISCDefinition>Baby Eating Behaviour Questionnaire - Retrospective - My baby took more than 30 minutes to finish feeding.</nciodm:CDISCDefinition>
                    <nciodm:PreferredTerm>BEBQ Retrospective Version - Baby Took More Than 30 Minutes</nciodm:PreferredTerm>
                </EnumeratedItem>
                <EnumeratedItem CodedValue="BEBQ0210" nciodm:ExtCodeID="C135802">
                    <nciodm:CDISCSynonym>BEBQ02-Got Full Before Taking All Milk</nciodm:CDISCSynonym>
                    <nciodm:CDISCDefinition>Baby Eating Behaviour Questionnaire - Retrospective - My baby got full before taking all the milk I think he/she should have.</nciodm:CDISCDefinition>
                    <nciodm:PreferredTerm>BEBQ Retrospective Version - Got Full Before Taking All Milk</nciodm:PreferredTerm>
                </EnumeratedItem>
                <EnumeratedItem CodedValue="BEBQ0211" nciodm:ExtCodeID="C135803">
                    <nciodm:CDISCSynonym>BEBQ02-Baby Fed Slowly</nciodm:CDISCSynonym>
                    <nciodm:CDISCDefinition>Baby Eating Behaviour Questionnaire - Retrospective - My baby fed slowly.</nciodm:CDISCDefinition>
                    <nciodm:PreferredTerm>BEBQ Retrospective Version - Baby Fed Slowly</nciodm:PreferredTerm>
                </EnumeratedItem>
                <EnumeratedItem CodedValue="BEBQ0212" nciodm:ExtCodeID="C135804">
                    <nciodm:CDISCSynonym>BEBQ02-Just Eaten Happy to Feed Again</nciodm:CDISCSynonym>
                    <nciodm:CDISCDefinition>Baby Eating Behaviour Questionnaire - Retrospective - Even when my baby had just eaten well he/she was happy to feed again if offered.</nciodm:CDISCDefinition>
                    <nciodm:PreferredTerm>BEBQ Retrospective Version - Just Eaten Happy to Feed Again</nciodm:PreferredTerm>
                </EnumeratedItem>
                <EnumeratedItem CodedValue="BEBQ0213" nciodm:ExtCodeID="C135805">
                    <nciodm:CDISCSynonym>BEBQ02-Difficult Manage Complete Feed</nciodm:CDISCSynonym>
                    <nciodm:CDISCDefinition>Baby Eating Behaviour Questionnaire - Retrospective - My baby found it difficult to manage a complete feed.</nciodm:CDISCDefinition>
                    <nciodm:PreferredTerm>BEBQ Retrospective Version - Difficult Manage Complete Feed</nciodm:PreferredTerm>
                </EnumeratedItem>
                <EnumeratedItem CodedValue="BEBQ0214" nciodm:ExtCodeID="C135806">
                    <nciodm:CDISCSynonym>BEBQ02-Baby Was Always Demanding a Feed</nciodm:CDISCSynonym>
                    <nciodm:CDISCDefinition>Baby Eating Behaviour Questionnaire - Retrospective - My baby was always demanding a feed.</nciodm:CDISCDefinition>
                    <nciodm:PreferredTerm>BEBQ Retrospective Version - Baby Was Always Demanding a Feed</nciodm:PreferredTerm>
                </EnumeratedItem>
                <EnumeratedItem CodedValue="BEBQ0215" nciodm:ExtCodeID="C135807">
                    <nciodm:CDISCSynonym>BEBQ02-Baby Sucked More and More Slowly</nciodm:CDISCSynonym>
                    <nciodm:CDISCDefinition>Baby Eating Behaviour Questionnaire - Retrospective - My baby sucked more and more slowly during the course of a feed.</nciodm:CDISCDefinition>
                    <nciodm:PreferredTerm>BEBQ Retrospective Version - Baby Sucked More and More Slowly</nciodm:PreferredTerm>
                </EnumeratedItem>
                <EnumeratedItem CodedValue="BEBQ0216" nciodm:ExtCodeID="C135808">
                    <nciodm:CDISCSynonym>BEBQ02-Baby Would Always Be Feeding</nciodm:CDISCSynonym>
                    <nciodm:CDISCDefinition>Baby Eating Behaviour Questionnaire - Retrospective - If given the chance, my baby would always be feeding.</nciodm:CDISCDefinition>
                    <nciodm:PreferredTerm>BEBQ Retrospective Version - Baby Would Always Be Feeding</nciodm:PreferredTerm>
                </EnumeratedItem>
                <EnumeratedItem CodedValue="BEBQ0217" nciodm:ExtCodeID="C135809">
                    <nciodm:CDISCSynonym>BEBQ02-Baby Enjoyed Feeding Time</nciodm:CDISCSynonym>
                    <nciodm:CDISCDefinition>Baby Eating Behaviour Questionnaire - Retrospective - My baby enjoyed feeding time.</nciodm:CDISCDefinition>
                    <nciodm:PreferredTerm>BEBQ Retrospective Version - Baby Enjoyed Feeding Time</nciodm:PreferredTerm>
                </EnumeratedItem>
                <EnumeratedItem CodedValue="BEBQ0218" nciodm:ExtCodeID="C135810">
                    <nciodm:CDISCSynonym>BEBQ02-Take a Feed Within 30 Minutes</nciodm:CDISCSynonym>
                    <nciodm:CDISCDefinition>Baby Eating Behaviour Questionnaire - Retrospective - My baby could easily take a feed within 30 minutes of the last one.</nciodm:CDISCDefinition>
                    <nciodm:PreferredTerm>BEBQ Retrospective Version - Take a Feed Within 30 Minutes</nciodm:PreferredTerm>
                </EnumeratedItem>
                <nciodm:CDISCSubmissionValue>BEBQ02TC</nciodm:CDISCSubmissionValue>
                <nciodm:CDISCSynonym>Baby Eating Behaviour Questionnaire Retrospective Version Questionnaire Test Code</nciodm:CDISCSynonym>
                <nciodm:PreferredTerm>CDISC Questionnaire BEBQ Retrospective Version Test Code Terminology</nciodm:PreferredTerm>
            </CodeList>
            
