<CodeList xmlns="http://www.cdisc.org/ns/odm/v1.3" xmlns:nciodm="http://ncicb.nci.nih.gov/xml/odm/EVS/CDISC" xmlns:xs="http://www.w3.org/2001/XMLSchema-instance" OID="CL.C141661.D4STR1TC" Name="Descend 4 Stairs Functional Test Test Code" DataType="text" nciodm:ExtCodeID="C141661" nciodm:CodeListExtensible="No">
                <Description>
                    <TranslatedText xml:lang="en">Descend 4 Stairs test code.</TranslatedText>
                </Description>
                <EnumeratedItem CodedValue="D4STR101" nciodm:ExtCodeID="C141704">
                    <nciodm:CDISCSynonym>D4STR1-Time to Descend 4 Stairs</nciodm:CDISCSynonym>
                    <nciodm:CDISCDefinition>4 Stair Descend - Time taken to descend 4 stairs.</nciodm:CDISCDefinition>
                    <nciodm:PreferredTerm>4 Stair Descend - Time to Descend 4 Stairs</nciodm:PreferredTerm>
                </EnumeratedItem>
                <EnumeratedItem CodedValue="D4STR102" nciodm:ExtCodeID="C141705">
                    <nciodm:CDISCSynonym>D4STR1-Test Grade</nciodm:CDISCSynonym>
                    <nciodm:CDISCDefinition>4 Stair Descend - Test grade.</nciodm:CDISCDefinition>
                    <nciodm:PreferredTerm>4 Stair Descend - Test Grade</nciodm:PreferredTerm>
                </EnumeratedItem>
                <EnumeratedItem CodedValue="D4STR103" nciodm:ExtCodeID="C147591">
                    <nciodm:CDISCSynonym>D4STR1-Wear Orthoses</nciodm:CDISCSynonym>
                    <nciodm:CDISCDefinition>4 Stair Descend - Did subject wear orthoses?</nciodm:CDISCDefinition>
                    <nciodm:PreferredTerm>4 Stair Descend - Wear Orthoses</nciodm:PreferredTerm>
                </EnumeratedItem>
                <nciodm:CDISCSubmissionValue>D4STR1TC</nciodm:CDISCSubmissionValue>
                <nciodm:CDISCSynonym>Descend 4 Stairs Functional Test Test Code</nciodm:CDISCSynonym>
                <nciodm:PreferredTerm>CDISC Functional Test 4 Stair Descend Test Code Terminology</nciodm:PreferredTerm>
            </CodeList>
            
