<CodeList xmlns="http://www.cdisc.org/ns/odm/v1.3" xmlns:nciodm="http://ncicb.nci.nih.gov/xml/odm/EVS/CDISC" xmlns:xs="http://www.w3.org/2001/XMLSchema-instance" OID="CL.C103463.ESS01TC" Name="Epworth Sleepiness Scale Questionnaire Test Code" DataType="text" nciodm:ExtCodeID="C103463" nciodm:CodeListExtensible="No">
                <Description>
                    <TranslatedText xml:lang="en">Epworth Sleepiness Scale test code.</TranslatedText>
                </Description>
                <EnumeratedItem CodedValue="ESS0101" nciodm:ExtCodeID="C103536">
                    <nciodm:CDISCSynonym>ESS01-Sitting and Reading</nciodm:CDISCSynonym>
                    <nciodm:CDISCDefinition>Epworth Sleepiness Scale - Sitting and reading.</nciodm:CDISCDefinition>
                    <nciodm:PreferredTerm>ESS - Sitting and Reading</nciodm:PreferredTerm>
                </EnumeratedItem>
                <EnumeratedItem CodedValue="ESS0102" nciodm:ExtCodeID="C103537">
                    <nciodm:CDISCSynonym>ESS01-Watching TV</nciodm:CDISCSynonym>
                    <nciodm:CDISCDefinition>Epworth Sleepiness Scale - Watching TV.</nciodm:CDISCDefinition>
                    <nciodm:PreferredTerm>ESS - Watching TV</nciodm:PreferredTerm>
                </EnumeratedItem>
                <EnumeratedItem CodedValue="ESS0103" nciodm:ExtCodeID="C103538">
                    <nciodm:CDISCSynonym>ESS01-Sitting Inactive in a Public Place</nciodm:CDISCSynonym>
                    <nciodm:CDISCDefinition>Epworth Sleepiness Scale - Sitting, inactive in a public place (e.g. a theatre or a meeting).</nciodm:CDISCDefinition>
                    <nciodm:PreferredTerm>ESS - Sitting, Inactive in a Public Place</nciodm:PreferredTerm>
                </EnumeratedItem>
                <EnumeratedItem CodedValue="ESS0104" nciodm:ExtCodeID="C103539">
                    <nciodm:CDISCSynonym>ESS01-Passenger for Hour Without Break</nciodm:CDISCSynonym>
                    <nciodm:CDISCDefinition>Epworth Sleepiness Scale - As a passenger in a car for an hour without a break.</nciodm:CDISCDefinition>
                    <nciodm:PreferredTerm>ESS - As a Passenger in a Car for an Hour Without a Break</nciodm:PreferredTerm>
                </EnumeratedItem>
                <EnumeratedItem CodedValue="ESS0105" nciodm:ExtCodeID="C103540">
                    <nciodm:CDISCSynonym>ESS01-Lying Down to Rest In Afternoon</nciodm:CDISCSynonym>
                    <nciodm:CDISCDefinition>Epworth Sleepiness Scale - Lying down to rest in the afternoon when circumstances permit.</nciodm:CDISCDefinition>
                    <nciodm:PreferredTerm>ESS - Lying Down to Rest in the Afternoon When Circumstances Permit</nciodm:PreferredTerm>
                </EnumeratedItem>
                <EnumeratedItem CodedValue="ESS0106" nciodm:ExtCodeID="C103541">
                    <nciodm:CDISCSynonym>ESS01-Sitting and Talking to Someone</nciodm:CDISCSynonym>
                    <nciodm:CDISCDefinition>Epworth Sleepiness Scale - Sitting and talking to someone.</nciodm:CDISCDefinition>
                    <nciodm:PreferredTerm>ESS - Sitting and Talking to Someone</nciodm:PreferredTerm>
                </EnumeratedItem>
                <EnumeratedItem CodedValue="ESS0107" nciodm:ExtCodeID="C103542">
                    <nciodm:CDISCSynonym>ESS01-Sitting Quietly After Lunch</nciodm:CDISCSynonym>
                    <nciodm:CDISCDefinition>Epworth Sleepiness Scale - Sitting quietly after a lunch without alcohol.</nciodm:CDISCDefinition>
                    <nciodm:PreferredTerm>ESS - Sitting Quietly After a Lunch without Alcohol</nciodm:PreferredTerm>
                </EnumeratedItem>
                <EnumeratedItem CodedValue="ESS0108" nciodm:ExtCodeID="C103543">
                    <nciodm:CDISCSynonym>ESS01-In Car Stopped Few Minutes Traffic</nciodm:CDISCSynonym>
                    <nciodm:CDISCDefinition>Epworth Sleepiness Scale - In a car, while stopped for a few minutes in the traffic.</nciodm:CDISCDefinition>
                    <nciodm:PreferredTerm>ESS - In a car, While Stopped for a Few Minutes in the Traffic</nciodm:PreferredTerm>
                </EnumeratedItem>
                <nciodm:CDISCSubmissionValue>ESS01TC</nciodm:CDISCSubmissionValue>
                <nciodm:CDISCSynonym>Epworth Sleepiness Scale Questionnaire Test Code</nciodm:CDISCSynonym>
                <nciodm:PreferredTerm>CDISC Questionnaire ESS Test Code Terminology</nciodm:PreferredTerm>
            </CodeList>
            
