<CodeList xmlns="http://www.cdisc.org/ns/odm/v1.3" xmlns:nciodm="http://ncicb.nci.nih.gov/xml/odm/EVS/CDISC" xmlns:xs="http://www.w3.org/2001/XMLSchema-instance" OID="CL.C147541.FAC084TN" Name="Functional Assessment of Chronic Illness Therapy-Dyspnea 10 Item Short Form Questionnaire Test Name" DataType="text" nciodm:ExtCodeID="C147541" nciodm:CodeListExtensible="No">
                <Description>
                    <TranslatedText xml:lang="en">Functional Assessment of Chronic Illness Therapy-Dyspnea 10 Item Short Form test name.</TranslatedText>
                </Description>
                <EnumeratedItem CodedValue="FAC084-Part I: Carry 10-20 Lbs" nciodm:ExtCodeID="C147659">
                    <nciodm:CDISCSynonym>FAC084-Part I: Carry 10-20 Lbs</nciodm:CDISCSynonym>
                    <nciodm:CDISCDefinition>Functional Assessment of Chronic Illness Therapy-Dyspnea 10 Item Short Form - Part I. Over the past 7 days, how short of breath did you get with each of these activities?: Carrying something weighing 10-20 lbs (about 4.5-9kg, like a large bag of groceries) from one room to another.</nciodm:CDISCDefinition>
                    <nciodm:PreferredTerm>FACIT-Dyspnea 10 Item Short Form - Part I: Carry 10-20 Lbs</nciodm:PreferredTerm>
                </EnumeratedItem>
                <EnumeratedItem CodedValue="FAC084-Part I: Carry 10-20 Lbs Why Not" nciodm:ExtCodeID="C147660">
                    <nciodm:CDISCSynonym>FAC084-Part I: Carry 10-20 Lbs Why Not</nciodm:CDISCSynonym>
                    <nciodm:CDISCDefinition>Functional Assessment of Chronic Illness Therapy-Dyspnea 10 Item Short Form - Part I. Over the past 7 days, how short of breath did you get with each of these activities?: Carrying something weighing 10-20 lbs (about 4.5-9kg, like a large bag of groceries) from one room to another. Please indicate why you did not do this in the past 7 days.</nciodm:CDISCDefinition>
                    <nciodm:PreferredTerm>FACIT-Dyspnea 10 Item Short Form - Part I: Carry 10-20 Lbs Why Not</nciodm:PreferredTerm>
                </EnumeratedItem>
                <EnumeratedItem CodedValue="FAC084-Part I: Dressing Why Not" nciodm:ExtCodeID="C147644">
                    <nciodm:CDISCSynonym>FAC084-Part I: Dressing Why Not</nciodm:CDISCSynonym>
                    <nciodm:CDISCDefinition>Functional Assessment of Chronic Illness Therapy-Dyspnea 10 Item Short Form - Part I. Over the past 7 days, how short of breath did you get with each of these activities?: Dressing yourself without help. Please indicate why you did not do this in the past 7 days.</nciodm:CDISCDefinition>
                    <nciodm:PreferredTerm>FACIT-Dyspnea 10 Item Short Form - Part I: Dressing Why Not</nciodm:PreferredTerm>
                </EnumeratedItem>
                <EnumeratedItem CodedValue="FAC084-Part I: Dressing Without Help" nciodm:ExtCodeID="C147643">
                    <nciodm:CDISCSynonym>FAC084-Part I: Dressing Without Help</nciodm:CDISCSynonym>
                    <nciodm:CDISCDefinition>Functional Assessment of Chronic Illness Therapy-Dyspnea 10 Item Short Form - Part I. Over the past 7 days, how short of breath did you get with each of these activities?: Dressing yourself without help.</nciodm:CDISCDefinition>
                    <nciodm:PreferredTerm>FACIT-Dyspnea 10 Item Short Form - Part I: Dressing Without Help</nciodm:PreferredTerm>
                </EnumeratedItem>
                <EnumeratedItem CodedValue="FAC084-Part I: Lifting 10-20 Lbs" nciodm:ExtCodeID="C147657">
                    <nciodm:CDISCSynonym>FAC084-Part I: Lifting 10-20 Lbs</nciodm:CDISCSynonym>
                    <nciodm:CDISCDefinition>Functional Assessment of Chronic Illness Therapy-Dyspnea 10 Item Short Form - Part I. Over the past 7 days, how short of breath did you get with each of these activities?: Lifting something weighing 10-20 lbs (about 4.5-9kg, like a large bag of groceries).</nciodm:CDISCDefinition>
                    <nciodm:PreferredTerm>FACIT-Dyspnea 10 Item Short Form - Part I: Lifting 10-20 Lbs</nciodm:PreferredTerm>
                </EnumeratedItem>
                <EnumeratedItem CodedValue="FAC084-Part I: Lifting 10-20 Lbs Why Not" nciodm:ExtCodeID="C147658">
                    <nciodm:CDISCSynonym>FAC084-Part I: Lifting 10-20 Lbs Why Not</nciodm:CDISCSynonym>
                    <nciodm:CDISCDefinition>Functional Assessment of Chronic Illness Therapy-Dyspnea 10 Item Short Form - Part I. Over the past 7 days, how short of breath did you get with each of these activities?: Lifting something weighing 10-20 lbs (about 4.5-9kg, like a large bag of groceries). Please indicate why you did not do this in the past 7 days.</nciodm:CDISCDefinition>
                    <nciodm:PreferredTerm>FACIT-Dyspnea 10 Item Short Form - Part I: Lifting 10-20 Lbs Why Not</nciodm:PreferredTerm>
                </EnumeratedItem>
                <EnumeratedItem CodedValue="FAC084-Part I: Making a Bed" nciodm:ExtCodeID="C147655">
                    <nciodm:CDISCSynonym>FAC084-Part I: Making a Bed</nciodm:CDISCSynonym>
                    <nciodm:CDISCDefinition>Functional Assessment of Chronic Illness Therapy-Dyspnea 10 Item Short Form - Part I. Over the past 7 days, how short of breath did you get with each of these activities?: Making a bed.</nciodm:CDISCDefinition>
                    <nciodm:PreferredTerm>FACIT-Dyspnea 10 Item Short Form - Part I: Making a Bed</nciodm:PreferredTerm>
                </EnumeratedItem>
                <EnumeratedItem CodedValue="FAC084-Part I: Making a Bed Why Not" nciodm:ExtCodeID="C147656">
                    <nciodm:CDISCSynonym>FAC084-Part I: Making a Bed Why Not</nciodm:CDISCSynonym>
                    <nciodm:CDISCDefinition>Functional Assessment of Chronic Illness Therapy-Dyspnea 10 Item Short Form - Part I. Over the past 7 days, how short of breath did you get with each of these activities?: Making a bed. Please indicate why you did not do this in the past 7 days.</nciodm:CDISCDefinition>
                    <nciodm:PreferredTerm>FACIT-Dyspnea 10 Item Short Form - Part I: Making a Bed Why Not</nciodm:PreferredTerm>
                </EnumeratedItem>
                <EnumeratedItem CodedValue="FAC084-Part I: Preparing Meals" nciodm:ExtCodeID="C147649">
                    <nciodm:CDISCSynonym>FAC084-Part I: Preparing Meals</nciodm:CDISCSynonym>
                    <nciodm:CDISCDefinition>Functional Assessment of Chronic Illness Therapy-Dyspnea 10 Item Short Form - Part I. Over the past 7 days, how short of breath did you get with each of these activities?: Preparing Meals.</nciodm:CDISCDefinition>
                    <nciodm:PreferredTerm>FACIT-Dyspnea 10 Item Short Form - Part I: Preparing Meals</nciodm:PreferredTerm>
                </EnumeratedItem>
                <EnumeratedItem CodedValue="FAC084-Part I: Preparing Meals Why Not" nciodm:ExtCodeID="C147650">
                    <nciodm:CDISCSynonym>FAC084-Part I: Preparing Meals Why Not</nciodm:CDISCSynonym>
                    <nciodm:CDISCDefinition>Functional Assessment of Chronic Illness Therapy-Dyspnea 10 Item Short Form - Part I. Over the past 7 days, how short of breath did you get with each of these activities?: Preparing Meals. Please indicate why you did not do this in the past 7 days.</nciodm:CDISCDefinition>
                    <nciodm:PreferredTerm>FACIT-Dyspnea 10 Item Short Form - Part I: Preparing Meals Why Not</nciodm:PreferredTerm>
                </EnumeratedItem>
                <EnumeratedItem CodedValue="FAC084-Part I: Sweeping/Mopping" nciodm:ExtCodeID="C147653">
                    <nciodm:CDISCSynonym>FAC084-Part I: Sweeping/Mopping</nciodm:CDISCSynonym>
                    <nciodm:CDISCDefinition>Functional Assessment of Chronic Illness Therapy-Dyspnea 10 Item Short Form - Part I. Over the past 7 days, how short of breath did you get with each of these activities?: Sweeping or mopping.</nciodm:CDISCDefinition>
                    <nciodm:PreferredTerm>FACIT-Dyspnea 10 Item Short Form - Part I: Sweeping/Mopping</nciodm:PreferredTerm>
                </EnumeratedItem>
                <EnumeratedItem CodedValue="FAC084-Part I: Sweeping/Mopping Why Not" nciodm:ExtCodeID="C147654">
                    <nciodm:CDISCSynonym>FAC084-Part I: Sweeping/Mopping Why Not</nciodm:CDISCSynonym>
                    <nciodm:CDISCDefinition>Functional Assessment of Chronic Illness Therapy-Dyspnea 10 Item Short Form - Part I. Over the past 7 days, how short of breath did you get with each of these activities?: Sweeping or mopping. Please indicate why you did not do this in the past 7 days.</nciodm:CDISCDefinition>
                    <nciodm:PreferredTerm>FACIT-Dyspnea 10 Item Short Form - Part I: Sweeping/Mopping Why Not</nciodm:PreferredTerm>
                </EnumeratedItem>
                <EnumeratedItem CodedValue="FAC084-Part I: Walk 50 Steps" nciodm:ExtCodeID="C147645">
                    <nciodm:CDISCSynonym>FAC084-Part I: Walk 50 Steps</nciodm:CDISCSynonym>
                    <nciodm:CDISCDefinition>Functional Assessment of Chronic Illness Therapy-Dyspnea 10 Item Short Form - Part I. Over the past 7 days, how short of breath did you get with each of these activities?: Walking 50 steps/paces on flat ground at a normal speed without stopping.</nciodm:CDISCDefinition>
                    <nciodm:PreferredTerm>FACIT-Dyspnea 10 Item Short Form - Part I: Walk 50 Steps</nciodm:PreferredTerm>
                </EnumeratedItem>
                <EnumeratedItem CodedValue="FAC084-Part I: Walk 50 Steps Why Not" nciodm:ExtCodeID="C147646">
                    <nciodm:CDISCSynonym>FAC084-Part I: Walk 50 Steps Why Not</nciodm:CDISCSynonym>
                    <nciodm:CDISCDefinition>Functional Assessment of Chronic Illness Therapy-Dyspnea 10 Item Short Form - Part I. Over the past 7 days, how short of breath did you get with each of these activities?: Walking 50 steps/paces on flat ground at a normal speed without stopping. Please indicate why you did not do this in the past 7 days.</nciodm:CDISCDefinition>
                    <nciodm:PreferredTerm>FACIT-Dyspnea 10 Item Short Form - Part I: Walk 50 Steps Why Not</nciodm:PreferredTerm>
                </EnumeratedItem>
                <EnumeratedItem CodedValue="FAC084-Part I: Walk for 1/2 Mile" nciodm:ExtCodeID="C147661">
                    <nciodm:CDISCSynonym>FAC084-Part I: Walk for 1/2 Mile</nciodm:CDISCSynonym>
                    <nciodm:CDISCDefinition>Functional Assessment of Chronic Illness Therapy-Dyspnea 10 Item Short Form - Part I. Over the past 7 days, how short of breath did you get with each of these activities?: Walking (faster than your usual speed) for 1/2 mile (almost 1 km) without stopping.</nciodm:CDISCDefinition>
                    <nciodm:PreferredTerm>FACIT-Dyspnea 10 Item Short Form - Part I: Walk for 1/2 Mile</nciodm:PreferredTerm>
                </EnumeratedItem>
                <EnumeratedItem CodedValue="FAC084-Part I: Walk for 1/2 Mile Why Not" nciodm:ExtCodeID="C147662">
                    <nciodm:CDISCSynonym>FAC084-Part I: Walk for 1/2 Mile Why Not</nciodm:CDISCSynonym>
                    <nciodm:CDISCDefinition>Functional Assessment of Chronic Illness Therapy-Dyspnea 10 Item Short Form - Part I. Over the past 7 days, how short of breath did you get with each of these activities?: Walking (faster than your usual speed) for 1/2 mile (almost 1 km) without stopping. Please indicate why you did not do this in the past 7 days.</nciodm:CDISCDefinition>
                    <nciodm:PreferredTerm>FACIT-Dyspnea 10 Item Short Form - Part I: Walk for 1/2 Mile Why Not</nciodm:PreferredTerm>
                </EnumeratedItem>
                <EnumeratedItem CodedValue="FAC084-Part I: Walk Up 20 Stairs" nciodm:ExtCodeID="C147647">
                    <nciodm:CDISCSynonym>FAC084-Part I: Walk Up 20 Stairs</nciodm:CDISCSynonym>
                    <nciodm:CDISCDefinition>Functional Assessment of Chronic Illness Therapy-Dyspnea 10 Item Short Form - Part I. Over the past 7 days, how short of breath did you get with each of these activities?: Walking up 20 stairs (2 flights) without stopping.</nciodm:CDISCDefinition>
                    <nciodm:PreferredTerm>FACIT-Dyspnea 10 Item Short Form - Part I: Walk Up 20 Stairs</nciodm:PreferredTerm>
                </EnumeratedItem>
                <EnumeratedItem CodedValue="FAC084-Part I: Walk Up 20 Stairs Why Not" nciodm:ExtCodeID="C147648">
                    <nciodm:CDISCSynonym>FAC084-Part I: Walk Up 20 Stairs Why Not</nciodm:CDISCSynonym>
                    <nciodm:CDISCDefinition>Functional Assessment of Chronic Illness Therapy-Dyspnea 10 Item Short Form - Part I. Over the past 7 days, how short of breath did you get with each of these activities?: Walking up 20 stairs (2 flights) without stopping. Please indicate why you did not do this in the past 7 days.</nciodm:CDISCDefinition>
                    <nciodm:PreferredTerm>FACIT-Dyspnea 10 Item Short Form - Part I: Walk Up 20 Stairs Why Not</nciodm:PreferredTerm>
                </EnumeratedItem>
                <EnumeratedItem CodedValue="FAC084-Part I: Washing Dishes" nciodm:ExtCodeID="C147651">
                    <nciodm:CDISCSynonym>FAC084-Part I: Washing Dishes</nciodm:CDISCSynonym>
                    <nciodm:CDISCDefinition>Functional Assessment of Chronic Illness Therapy-Dyspnea 10 Item Short Form - Part I. Over the past 7 days, how short of breath did you get with each of these activities?: Washing dishes.</nciodm:CDISCDefinition>
                    <nciodm:PreferredTerm>FACIT-Dyspnea 10 Item Short Form - Part I: Washing Dishes</nciodm:PreferredTerm>
                </EnumeratedItem>
                <EnumeratedItem CodedValue="FAC084-Part I: Washing Dishes Why Not" nciodm:ExtCodeID="C147652">
                    <nciodm:CDISCSynonym>FAC084-Part I: Washing Dishes Why Not</nciodm:CDISCSynonym>
                    <nciodm:CDISCDefinition>Functional Assessment of Chronic Illness Therapy-Dyspnea 10 Item Short Form - Part I. Over the past 7 days, how short of breath did you get with each of these activities?: Washing dishes. Please indicate why you did not do this in the past 7 days.</nciodm:CDISCDefinition>
                    <nciodm:PreferredTerm>FACIT-Dyspnea 10 Item Short Form - Part I: Washing Dishes Why Not</nciodm:PreferredTerm>
                </EnumeratedItem>
                <EnumeratedItem CodedValue="FAC084-Part II: Carry 10-20 Lbs" nciodm:ExtCodeID="C147671">
                    <nciodm:CDISCSynonym>FAC084-Part II: Carry 10-20 Lbs</nciodm:CDISCSynonym>
                    <nciodm:CDISCDefinition>Functional Assessment of Chronic Illness Therapy-Dyspnea 10 Item Short Form - Part II Functional Limitation. Considering your shortness of breath over the past 7 days, rate the amount of difficulty you had when doing the following activities: Carrying something weighing 10-20 lbs (about 4.5-9kg, like a large bag of groceries) from one room to another.</nciodm:CDISCDefinition>
                    <nciodm:PreferredTerm>FACIT-Dyspnea 10 Item Short Form - Part II: Carry 10-20 Lbs</nciodm:PreferredTerm>
                </EnumeratedItem>
                <EnumeratedItem CodedValue="FAC084-Part II: Dressing Without Help" nciodm:ExtCodeID="C147663">
                    <nciodm:CDISCSynonym>FAC084-Part II: Dressing Without Help</nciodm:CDISCSynonym>
                    <nciodm:CDISCDefinition>Functional Assessment of Chronic Illness Therapy-Dyspnea 10 Item Short Form - Part II Functional Limitation. Considering your shortness of breath over the past 7 days, rate the amount of difficulty you had when doing the following activities: Dressing yourself without help.</nciodm:CDISCDefinition>
                    <nciodm:PreferredTerm>FACIT-Dyspnea 10 Item Short Form - Part II: Dressing Without Help</nciodm:PreferredTerm>
                </EnumeratedItem>
                <EnumeratedItem CodedValue="FAC084-Part II: Lifting 10-20 Lbs" nciodm:ExtCodeID="C147670">
                    <nciodm:CDISCSynonym>FAC084-Part II: Lifting 10-20 Lbs</nciodm:CDISCSynonym>
                    <nciodm:CDISCDefinition>Functional Assessment of Chronic Illness Therapy-Dyspnea 10 Item Short Form - Part II Functional Limitation. Considering your shortness of breath over the past 7 days, rate the amount of difficulty you had when doing the following activities: Lifting something weighing 10-20 lbs (about 4.5-9kg, like a large bag of groceries).</nciodm:CDISCDefinition>
                    <nciodm:PreferredTerm>FACIT-Dyspnea 10 Item Short Form - Part II: Lifting 10-20 Lbs</nciodm:PreferredTerm>
                </EnumeratedItem>
                <EnumeratedItem CodedValue="FAC084-Part II: Making a Bed" nciodm:ExtCodeID="C147669">
                    <nciodm:CDISCSynonym>FAC084-Part II: Making a Bed</nciodm:CDISCSynonym>
                    <nciodm:CDISCDefinition>Functional Assessment of Chronic Illness Therapy-Dyspnea 10 Item Short Form - Part II Functional Limitation. Considering your shortness of breath over the past 7 days, rate the amount of difficulty you had when doing the following activities: Making a bed.</nciodm:CDISCDefinition>
                    <nciodm:PreferredTerm>FACIT-Dyspnea 10 Item Short Form - Part II: Making a Bed</nciodm:PreferredTerm>
                </EnumeratedItem>
                <EnumeratedItem CodedValue="FAC084-Part II: Preparing Meals" nciodm:ExtCodeID="C147666">
                    <nciodm:CDISCSynonym>FAC084-Part II: Preparing Meals</nciodm:CDISCSynonym>
                    <nciodm:CDISCDefinition>Functional Assessment of Chronic Illness Therapy-Dyspnea 10 Item Short Form - Part II Functional Limitation. Considering your shortness of breath over the past 7 days, rate the amount of difficulty you had when doing the following activities: Preparing meals.</nciodm:CDISCDefinition>
                    <nciodm:PreferredTerm>FACIT-Dyspnea 10 Item Short Form - Part II: Preparing Meals</nciodm:PreferredTerm>
                </EnumeratedItem>
                <EnumeratedItem CodedValue="FAC084-Part II: Sweeping/Mopping" nciodm:ExtCodeID="C147668">
                    <nciodm:CDISCSynonym>FAC084-Part II: Sweeping/Mopping</nciodm:CDISCSynonym>
                    <nciodm:CDISCDefinition>Functional Assessment of Chronic Illness Therapy-Dyspnea 10 Item Short Form - Part II Functional Limitation. Considering your shortness of breath over the past 7 days, rate the amount of difficulty you had when doing the following activities: Sweeping or mopping.</nciodm:CDISCDefinition>
                    <nciodm:PreferredTerm>FACIT-Dyspnea 10 Item Short Form - Part II: Sweeping/Mopping</nciodm:PreferredTerm>
                </EnumeratedItem>
                <EnumeratedItem CodedValue="FAC084-Part II: Walk 50 Steps" nciodm:ExtCodeID="C147664">
                    <nciodm:CDISCSynonym>FAC084-Part II: Walk 50 Steps</nciodm:CDISCSynonym>
                    <nciodm:CDISCDefinition>Functional Assessment of Chronic Illness Therapy-Dyspnea 10 Item Short Form - Part II Functional Limitation. Considering your shortness of breath over the past 7 days, rate the amount of difficulty you had when doing the following activities: Walking 50 steps/paces on flat ground at a normal speed without stopping.</nciodm:CDISCDefinition>
                    <nciodm:PreferredTerm>FACIT-Dyspnea 10 Item Short Form - Part II: Walk 50 Steps</nciodm:PreferredTerm>
                </EnumeratedItem>
                <EnumeratedItem CodedValue="FAC084-Part II: Walk for 1/2 Mile" nciodm:ExtCodeID="C147672">
                    <nciodm:CDISCSynonym>FAC084-Part II: Walk for 1/2 Mile</nciodm:CDISCSynonym>
                    <nciodm:CDISCDefinition>Functional Assessment of Chronic Illness Therapy-Dyspnea 10 Item Short Form - Part II Functional Limitation. Considering your shortness of breath over the past 7 days, rate the amount of difficulty you had when doing the following activities: Walking (faster than your usual speed) for 1/2 mile (almost 1 km) without stopping.</nciodm:CDISCDefinition>
                    <nciodm:PreferredTerm>FACIT-Dyspnea 10 Item Short Form - Part II: Walk for 1/2 Mile</nciodm:PreferredTerm>
                </EnumeratedItem>
                <EnumeratedItem CodedValue="FAC084-Part II: Walk Up 20 Stairs" nciodm:ExtCodeID="C147665">
                    <nciodm:CDISCSynonym>FAC084-Part II: Walk Up 20 Stairs</nciodm:CDISCSynonym>
                    <nciodm:CDISCDefinition>Functional Assessment of Chronic Illness Therapy-Dyspnea 10 Item Short Form - Part II Functional Limitation. Considering your shortness of breath over the past 7 days, rate the amount of difficulty you had when doing the following activities: Walking up 20 stairs (2 flights) without stopping.</nciodm:CDISCDefinition>
                    <nciodm:PreferredTerm>FACIT-Dyspnea 10 Item Short Form - Part II: Walk Up 20 Stairs</nciodm:PreferredTerm>
                </EnumeratedItem>
                <EnumeratedItem CodedValue="FAC084-Part II: Washing Dishes" nciodm:ExtCodeID="C147667">
                    <nciodm:CDISCSynonym>FAC084-Part II: Washing Dishes</nciodm:CDISCSynonym>
                    <nciodm:CDISCDefinition>Functional Assessment of Chronic Illness Therapy-Dyspnea 10 Item Short Form - Part II Functional Limitation. Considering your shortness of breath over the past 7 days, rate the amount of difficulty you had when doing the following activities: Washing dishes.</nciodm:CDISCDefinition>
                    <nciodm:PreferredTerm>FACIT-Dyspnea 10 Item Short Form - Part II: Washing Dishes</nciodm:PreferredTerm>
                </EnumeratedItem>
                <nciodm:CDISCSubmissionValue>FAC084TN</nciodm:CDISCSubmissionValue>
                <nciodm:CDISCSynonym>Functional Assessment of Chronic Illness Therapy-Dyspnea 10 Item Short Form Questionnaire Test Name</nciodm:CDISCSynonym>
                <nciodm:PreferredTerm>CDISC Questionnaire FACIT-Dyspnea 10 Item Short Form Test Name Terminology</nciodm:PreferredTerm>
            </CodeList>
            
