<CodeList xmlns="http://www.cdisc.org/ns/odm/v1.3" xmlns:nciodm="http://ncicb.nci.nih.gov/xml/odm/EVS/CDISC" xmlns:xs="http://www.w3.org/2001/XMLSchema-instance" OID="CL.C125742.ASEX02TN" Name="Arizona Sexual Experiences Scale - Male Questionnaire Test Name" DataType="text" nciodm:ExtCodeID="C125742" nciodm:CodeListExtensible="No">
                <Description>
                    <TranslatedText xml:lang="en">Arizona Sexual Experiences Scale - Male test name.</TranslatedText>
                </Description>
                <EnumeratedItem CodedValue="ASEX02-Comments" nciodm:ExtCodeID="C129256">
                    <nciodm:CDISCSynonym>ASEX02-Comments</nciodm:CDISCSynonym>
                    <nciodm:CDISCDefinition>Arizona Sexual Experiences Scale Male - Comments.</nciodm:CDISCDefinition>
                    <nciodm:PreferredTerm>ASEX-Male Version - Comments</nciodm:PreferredTerm>
                </EnumeratedItem>
                <EnumeratedItem CodedValue="ASEX02-Keep Erection" nciodm:ExtCodeID="C125770">
                    <nciodm:CDISCSynonym>ASEX02-Keep Erection</nciodm:CDISCSynonym>
                    <nciodm:CDISCDefinition>Arizona Sexual Experiences Scale Male - Can you easily get and keep an erection?</nciodm:CDISCDefinition>
                    <nciodm:PreferredTerm>ASEX-Male Version - Keep Erection</nciodm:PreferredTerm>
                </EnumeratedItem>
                <EnumeratedItem CodedValue="ASEX02-Orgasms Satisfying" nciodm:ExtCodeID="C125772">
                    <nciodm:CDISCSynonym>ASEX02-Orgasms Satisfying</nciodm:CDISCSynonym>
                    <nciodm:CDISCDefinition>Arizona Sexual Experiences Scale Male - Are your orgasms satisfying?</nciodm:CDISCDefinition>
                    <nciodm:PreferredTerm>ASEX-Male Version - Orgasms Satisfying</nciodm:PreferredTerm>
                </EnumeratedItem>
                <EnumeratedItem CodedValue="ASEX02-Reach Orgasm" nciodm:ExtCodeID="C125771">
                    <nciodm:CDISCSynonym>ASEX02-Reach Orgasm</nciodm:CDISCSynonym>
                    <nciodm:CDISCDefinition>Arizona Sexual Experiences Scale Male - How easily can you reach an orgasm?</nciodm:CDISCDefinition>
                    <nciodm:PreferredTerm>ASEX-Male Version - Reach Orgasm</nciodm:PreferredTerm>
                </EnumeratedItem>
                <EnumeratedItem CodedValue="ASEX02-Sex Drive" nciodm:ExtCodeID="C125768">
                    <nciodm:CDISCSynonym>ASEX02-Sex Drive</nciodm:CDISCSynonym>
                    <nciodm:CDISCDefinition>Arizona Sexual Experiences Scale Male - How strong is your sex drive?</nciodm:CDISCDefinition>
                    <nciodm:PreferredTerm>ASEX-Male Version - Sex Drive</nciodm:PreferredTerm>
                </EnumeratedItem>
                <EnumeratedItem CodedValue="ASEX02-Sexually Aroused" nciodm:ExtCodeID="C125769">
                    <nciodm:CDISCSynonym>ASEX02-Sexually Aroused</nciodm:CDISCSynonym>
                    <nciodm:CDISCDefinition>Arizona Sexual Experiences Scale Male - How easily are you sexually aroused (turned on)?</nciodm:CDISCDefinition>
                    <nciodm:PreferredTerm>ASEX-Male Version - Sexually Aroused</nciodm:PreferredTerm>
                </EnumeratedItem>
                <nciodm:CDISCSubmissionValue>ASEX02TN</nciodm:CDISCSubmissionValue>
                <nciodm:CDISCSynonym>Arizona Sexual Experiences Scale - Male Questionnaire Test Name</nciodm:CDISCSynonym>
                <nciodm:PreferredTerm>CDISC Questionnaire ASEX-Male Version Test Name Terminology</nciodm:PreferredTerm>
            </CodeList>
            
