<CodeList xmlns="http://www.cdisc.org/ns/odm/v1.3" xmlns:nciodm="http://ncicb.nci.nih.gov/xml/odm/EVS/CDISC" xmlns:xs="http://www.w3.org/2001/XMLSchema-instance" OID="CL.C132319.MRFATS" Name="Malaria Findings About Test Name" DataType="text" nciodm:ExtCodeID="C132319" nciodm:CodeListExtensible="Yes">
                <Description>
                    <TranslatedText xml:lang="en">Terminology relevant to the test names that describe findings about a malaria event or intervention.</TranslatedText>
                </Description>
                <EnumeratedItem CodedValue="Occurrence Indicator" nciodm:ExtCodeID="C127786">
                    <nciodm:CDISCSynonym>Occurrence Indicator</nciodm:CDISCSynonym>
                    <nciodm:CDISCDefinition>An indication as to whether something has happened, such as an event or incident.</nciodm:CDISCDefinition>
                    <nciodm:PreferredTerm>Occurrence Indicator</nciodm:PreferredTerm>
                </EnumeratedItem>
                <EnumeratedItem CodedValue="Severity/Intensity" nciodm:ExtCodeID="C25676">
                    <nciodm:CDISCSynonym>Severity/Intensity</nciodm:CDISCSynonym>
                    <nciodm:CDISCDefinition>The degree of something undesirable.</nciodm:CDISCDefinition>
                    <nciodm:PreferredTerm>Severity</nciodm:PreferredTerm>
                </EnumeratedItem>
                <nciodm:CDISCSubmissionValue>MRFATS</nciodm:CDISCSubmissionValue>
                <nciodm:CDISCSynonym>Malaria Findings About Test Name</nciodm:CDISCSynonym>
                <nciodm:PreferredTerm>CDISC SDTM Malaria Findings About Test Name Terminology</nciodm:PreferredTerm>
            </CodeList>
            
