<CodeList xmlns="http://www.cdisc.org/ns/odm/v1.3" xmlns:nciodm="http://ncicb.nci.nih.gov/xml/odm/EVS/CDISC" xmlns:xs="http://www.w3.org/2001/XMLSchema-instance" OID="CL.C65047.LBTESTCD" Name="Laboratory Test Code" DataType="text" nciodm:ExtCodeID="C65047" nciodm:CodeListExtensible="Yes">
                <Description>
                    <TranslatedText xml:lang="en">Terminology used for laboratory test codes of the CDISC Study Data Tabulation Model.</TranslatedText>
                </Description>
                <EnumeratedItem CodedValue="A1AGLP" nciodm:ExtCodeID="C100429">
                    <nciodm:CDISCSynonym>Alpha-1 Acid Glycoprotein</nciodm:CDISCSynonym>
                    <nciodm:CDISCDefinition>A measurement of the alpha-1 acid glycoprotein in a biological specimen.</nciodm:CDISCDefinition>
                    <nciodm:PreferredTerm>Alpha-1 Acid Glycoprotein Measurement</nciodm:PreferredTerm>
                </EnumeratedItem>
                <EnumeratedItem CodedValue="A1ANTRYP" nciodm:ExtCodeID="C80167">
                    <nciodm:CDISCSynonym>Alpha-1 Antitrypsin</nciodm:CDISCSynonym>
                    <nciodm:CDISCSynonym>Serum Trypsin Inhibitor</nciodm:CDISCSynonym>
                    <nciodm:CDISCDefinition>A measurement of the alpha-1 antitrypsin in a biological specimen.</nciodm:CDISCDefinition>
                    <nciodm:PreferredTerm>Alpha-1 Antitrypsin Measurement</nciodm:PreferredTerm>
                </EnumeratedItem>
                <EnumeratedItem CodedValue="A1MCREAT" nciodm:ExtCodeID="C100462">
                    <nciodm:CDISCSynonym>Alpha-1 Microglobulin/Creatinine</nciodm:CDISCSynonym>
                    <nciodm:CDISCDefinition>A relative measurement (ratio or percentage) of the alpha-1 microglobulin to creatinine in a biological specimen.</nciodm:CDISCDefinition>
                    <nciodm:PreferredTerm>Alpha-1 Microglobulin to Creatinine Ratio Measurement</nciodm:PreferredTerm>
                </EnumeratedItem>
                <EnumeratedItem CodedValue="A1MICG" nciodm:ExtCodeID="C100461">
                    <nciodm:CDISCSynonym>Alpha-1 Microglobulin</nciodm:CDISCSynonym>
                    <nciodm:CDISCSynonym>Protein HC</nciodm:CDISCSynonym>
                    <nciodm:CDISCDefinition>A measurement of the alpha-1 microglobulin in a biological specimen.</nciodm:CDISCDefinition>
                    <nciodm:PreferredTerm>Alpha-1 Microglobulin Measurement</nciodm:PreferredTerm>
                </EnumeratedItem>
                <EnumeratedItem CodedValue="A2MACG" nciodm:ExtCodeID="C80168">
                    <nciodm:CDISCSynonym>Alpha-2 Macroglobulin</nciodm:CDISCSynonym>
                    <nciodm:CDISCDefinition>A measurement of the alpha-2 macroglobulin in a biological specimen.</nciodm:CDISCDefinition>
                    <nciodm:PreferredTerm>Alpha-2 Macroglobulin Measurement</nciodm:PreferredTerm>
                </EnumeratedItem>
                <EnumeratedItem CodedValue="AAP" nciodm:ExtCodeID="C100430">
                    <nciodm:CDISCSynonym>Alanine Aminopeptidase</nciodm:CDISCSynonym>
                    <nciodm:CDISCDefinition>A measurement of the alanine aminopeptidase in a biological specimen.</nciodm:CDISCDefinition>
                    <nciodm:PreferredTerm>Alanine Aminopeptidase Measurement</nciodm:PreferredTerm>
                </EnumeratedItem>
                <EnumeratedItem CodedValue="ABNCE" nciodm:ExtCodeID="C111124">
                    <nciodm:CDISCSynonym>Abnormal Cells</nciodm:CDISCSynonym>
                    <nciodm:CDISCDefinition>A measurement of the abnormal cells in a biological specimen.</nciodm:CDISCDefinition>
                    <nciodm:PreferredTerm>Abnormal Cell Count</nciodm:PreferredTerm>
                </EnumeratedItem>
                <EnumeratedItem CodedValue="ABO" nciodm:ExtCodeID="C125939">
                    <nciodm:CDISCSynonym>ABO Blood Group</nciodm:CDISCSynonym>
                    <nciodm:CDISCDefinition>The characterization of the blood type of an individual by testing for the presence of A antigen and B antigen on the surface of red blood cells.</nciodm:CDISCDefinition>
                    <nciodm:PreferredTerm>ABO Blood Group Determination</nciodm:PreferredTerm>
                </EnumeratedItem>
                <EnumeratedItem CodedValue="ACANT" nciodm:ExtCodeID="C74699">
                    <nciodm:CDISCSynonym>Acanthocytes</nciodm:CDISCSynonym>
                    <nciodm:CDISCDefinition>A measurement of the acanthocytes in a biological specimen.</nciodm:CDISCDefinition>
                    <nciodm:PreferredTerm>Acanthocyte Count</nciodm:PreferredTerm>
                </EnumeratedItem>
                <EnumeratedItem CodedValue="ACANTRBC" nciodm:ExtCodeID="C74633">
                    <nciodm:CDISCSynonym>Acanthocytes/Erythrocytes</nciodm:CDISCSynonym>
                    <nciodm:CDISCDefinition>A relative measurement (ratio or percentage) of acanthocytes to all erythrocytes in a biological specimen.</nciodm:CDISCDefinition>
                    <nciodm:PreferredTerm>Acanthocyte to Erythrocyte Ratio Measurement</nciodm:PreferredTerm>
                </EnumeratedItem>
                <EnumeratedItem CodedValue="ACE" nciodm:ExtCodeID="C80169">
                    <nciodm:CDISCSynonym>Angiotensin Converting Enzyme</nciodm:CDISCSynonym>
                    <nciodm:CDISCDefinition>A measurement of the angiotensin converting enzyme in a biological specimen.</nciodm:CDISCDefinition>
                    <nciodm:PreferredTerm>Angiotensin Converting Enzyme Measurement</nciodm:PreferredTerm>
                </EnumeratedItem>
                <EnumeratedItem CodedValue="ACETOAC" nciodm:ExtCodeID="C92247">
                    <nciodm:CDISCSynonym>Acetoacetate</nciodm:CDISCSynonym>
                    <nciodm:CDISCSynonym>Acetoacetic Acid</nciodm:CDISCSynonym>
                    <nciodm:CDISCDefinition>A measurement of the acetoacetic acid in a biological specimen.</nciodm:CDISCDefinition>
                    <nciodm:PreferredTerm>Acetoacetic Acid Measurement</nciodm:PreferredTerm>
                </EnumeratedItem>
                <EnumeratedItem CodedValue="ACH" nciodm:ExtCodeID="C74838">
                    <nciodm:CDISCSynonym>Acetylcholine</nciodm:CDISCSynonym>
                    <nciodm:CDISCDefinition>A measurement of the acetylcholine hormone in a biological specimen.</nciodm:CDISCDefinition>
                    <nciodm:PreferredTerm>Acetylcholine Measurement</nciodm:PreferredTerm>
                </EnumeratedItem>
                <EnumeratedItem CodedValue="ACHE" nciodm:ExtCodeID="C96560">
                    <nciodm:CDISCSynonym>Acetylcholinesterase</nciodm:CDISCSynonym>
                    <nciodm:CDISCDefinition>A measurement of the acetylcholinesterase in a biological specimen.</nciodm:CDISCDefinition>
                    <nciodm:PreferredTerm>Acetylcholinesterase Measurement</nciodm:PreferredTerm>
                </EnumeratedItem>
                <EnumeratedItem CodedValue="ACHRAB" nciodm:ExtCodeID="C96559">
                    <nciodm:CDISCSynonym>Acetylcholine Receptor Antibody</nciodm:CDISCSynonym>
                    <nciodm:CDISCDefinition>A measurement of the acetylcholine receptor antibody in a biological specimen.</nciodm:CDISCDefinition>
                    <nciodm:PreferredTerm>Acetylcholine Receptor Antibody Measurement</nciodm:PreferredTerm>
                </EnumeratedItem>
                <EnumeratedItem CodedValue="ACPHOS" nciodm:ExtCodeID="C80163">
                    <nciodm:CDISCSynonym>Acid Phosphatase</nciodm:CDISCSynonym>
                    <nciodm:CDISCDefinition>A measurement of the acid phosphatase in a biological specimen.</nciodm:CDISCDefinition>
                    <nciodm:PreferredTerm>Acid Phosphatase Measurement</nciodm:PreferredTerm>
                </EnumeratedItem>
                <EnumeratedItem CodedValue="ACT" nciodm:ExtCodeID="C103348">
                    <nciodm:CDISCSynonym>Activated Clot Time</nciodm:CDISCSynonym>
                    <nciodm:CDISCSynonym>Activated Clotting Time</nciodm:CDISCSynonym>
                    <nciodm:CDISCSynonym>Coagulation Activated</nciodm:CDISCSynonym>
                    <nciodm:CDISCDefinition>A measurement of the inhibition of blood coagulation in response to anticoagulant therapies.</nciodm:CDISCDefinition>
                    <nciodm:PreferredTerm>Activated Coagulation Time</nciodm:PreferredTerm>
                </EnumeratedItem>
                <EnumeratedItem CodedValue="ACTH" nciodm:ExtCodeID="C74780">
                    <nciodm:CDISCSynonym>Adrenocorticotropic Hormone</nciodm:CDISCSynonym>
                    <nciodm:CDISCDefinition>A measurement of the adrenocorticotropic hormone in a biological specimen.</nciodm:CDISCDefinition>
                    <nciodm:PreferredTerm>Adrenocorticotropic Hormone Measurement</nciodm:PreferredTerm>
                </EnumeratedItem>
                <EnumeratedItem CodedValue="ACYLCAOX" nciodm:ExtCodeID="C92286">
                    <nciodm:CDISCSynonym>Acyl CoA Oxidase</nciodm:CDISCSynonym>
                    <nciodm:CDISCSynonym>Acyl Coenzyme A Oxidase</nciodm:CDISCSynonym>
                    <nciodm:CDISCSynonym>Fatty Acyl Coenzyme A Oxidase</nciodm:CDISCSynonym>
                    <nciodm:CDISCDefinition>A measurement of the acyl coenzyme A oxidase in a biological specimen.</nciodm:CDISCDefinition>
                    <nciodm:PreferredTerm>Acyl Coenzyme A Oxidase Measurement</nciodm:PreferredTerm>
                </EnumeratedItem>
                <EnumeratedItem CodedValue="ADENOVAB" nciodm:ExtCodeID="C111125">
                    <nciodm:CDISCSynonym>Adenovirus Antibody</nciodm:CDISCSynonym>
                    <nciodm:CDISCDefinition>A measurement of the adenovirus antibody in a biological specimen.</nciodm:CDISCDefinition>
                    <nciodm:PreferredTerm>Adenovirus Antibody Measurement</nciodm:PreferredTerm>
                </EnumeratedItem>
                <EnumeratedItem CodedValue="ADH" nciodm:ExtCodeID="C74847">
                    <nciodm:CDISCSynonym>Antidiuretic Hormone</nciodm:CDISCSynonym>
                    <nciodm:CDISCSynonym>Vasopressin</nciodm:CDISCSynonym>
                    <nciodm:CDISCDefinition>A measurement of the antidiuretic hormone in a biological specimen.</nciodm:CDISCDefinition>
                    <nciodm:PreferredTerm>Antidiuretic Hormone Measurement</nciodm:PreferredTerm>
                </EnumeratedItem>
                <EnumeratedItem CodedValue="ADP" nciodm:ExtCodeID="C102257">
                    <nciodm:CDISCSynonym>Adenosine Diphosphate</nciodm:CDISCSynonym>
                    <nciodm:CDISCDefinition>A measurement of the adenosine diphosphate in a biological specimen.</nciodm:CDISCDefinition>
                    <nciodm:PreferredTerm>Adenosine Diphosphate Measurement</nciodm:PreferredTerm>
                </EnumeratedItem>
                <EnumeratedItem CodedValue="ADPNCTN" nciodm:ExtCodeID="C74839">
                    <nciodm:CDISCSynonym>Adiponectin</nciodm:CDISCSynonym>
                    <nciodm:CDISCDefinition>A measurement of the adiponectin hormone in a biological specimen.</nciodm:CDISCDefinition>
                    <nciodm:PreferredTerm>Adiponectin Measurement</nciodm:PreferredTerm>
                </EnumeratedItem>
                <EnumeratedItem CodedValue="ADSDNA" nciodm:ExtCodeID="C74913">
                    <nciodm:CDISCSynonym>Anti-Double Stranded DNA</nciodm:CDISCSynonym>
                    <nciodm:CDISCDefinition>A measurement of the anti-double stranded DNA antibody in a biological specimen.</nciodm:CDISCDefinition>
                    <nciodm:PreferredTerm>Anti-Double Stranded DNA Measurement</nciodm:PreferredTerm>
                </EnumeratedItem>
                <EnumeratedItem CodedValue="ADVVLD" nciodm:ExtCodeID="C98705">
                    <nciodm:CDISCSynonym>ADV Viral Load</nciodm:CDISCSynonym>
                    <nciodm:CDISCDefinition>A measurement of the adenovirus viral load in a biological specimen.</nciodm:CDISCDefinition>
                    <nciodm:PreferredTerm>Adenovirus Viral Load Measurement</nciodm:PreferredTerm>
                </EnumeratedItem>
                <EnumeratedItem CodedValue="AFACTXAA" nciodm:ExtCodeID="C98706">
                    <nciodm:CDISCSynonym>Anti-Factor Xa Activity</nciodm:CDISCSynonym>
                    <nciodm:CDISCDefinition>A measurement of the ability of antithrombin to inactivate activated Factor X in a biological specimen. This test is used to monitor low molecular weight or unfractionated heparin levels in a biological specimen.</nciodm:CDISCDefinition>
                    <nciodm:PreferredTerm>Anti-Factor Xa Activity Measurement</nciodm:PreferredTerm>
                </EnumeratedItem>
                <EnumeratedItem CodedValue="AFP" nciodm:ExtCodeID="C74732">
                    <nciodm:CDISCSynonym>Alpha Fetoprotein</nciodm:CDISCSynonym>
                    <nciodm:CDISCDefinition>A measurement of the alpha fetoprotein in a biological specimen.</nciodm:CDISCDefinition>
                    <nciodm:PreferredTerm>Alpha-fetoprotein Measurement</nciodm:PreferredTerm>
                </EnumeratedItem>
                <EnumeratedItem CodedValue="AFPA" nciodm:ExtCodeID="C106499">
                    <nciodm:CDISCSynonym>Alpha Fetoprotein Activity</nciodm:CDISCSynonym>
                    <nciodm:CDISCDefinition>A measurement of the alpha fetoprotein activity in a biological specimen.</nciodm:CDISCDefinition>
                    <nciodm:PreferredTerm>Alpha Fetoprotein Activity Measurement</nciodm:PreferredTerm>
                </EnumeratedItem>
                <EnumeratedItem CodedValue="AFPL1" nciodm:ExtCodeID="C96562">
                    <nciodm:CDISCSynonym>Alpha Fetoprotein L1</nciodm:CDISCSynonym>
                    <nciodm:CDISCDefinition>A measurement of the alpha fetoprotein L1 in a biological specimen.</nciodm:CDISCDefinition>
                    <nciodm:PreferredTerm>Alpha Fetoprotein L1 Measurement</nciodm:PreferredTerm>
                </EnumeratedItem>
                <EnumeratedItem CodedValue="AFPL2" nciodm:ExtCodeID="C96563">
                    <nciodm:CDISCSynonym>Alpha Fetoprotein L2</nciodm:CDISCSynonym>
                    <nciodm:CDISCDefinition>A measurement of the alpha fetoprotein L2 in a biological specimen.</nciodm:CDISCDefinition>
                    <nciodm:PreferredTerm>Alpha Fetoprotein L2 Measurement</nciodm:PreferredTerm>
                </EnumeratedItem>
                <EnumeratedItem CodedValue="AFPL3" nciodm:ExtCodeID="C96564">
                    <nciodm:CDISCSynonym>Alpha Fetoprotein L3</nciodm:CDISCSynonym>
                    <nciodm:CDISCDefinition>A measurement of the alpha fetoprotein L3 in a biological specimen.</nciodm:CDISCDefinition>
                    <nciodm:PreferredTerm>Alpha Fetoprotein L3 Measurement</nciodm:PreferredTerm>
                </EnumeratedItem>
                <EnumeratedItem CodedValue="AFPL3AFP" nciodm:ExtCodeID="C96565">
                    <nciodm:CDISCSynonym>A Fetoprotein L3/A Fetoprotein</nciodm:CDISCSynonym>
                    <nciodm:CDISCDefinition>A relative measurement (ratio or percentage) of alpha fetoprotein L3 to total alpha fetoprotein in a biological specimen.</nciodm:CDISCDefinition>
                    <nciodm:PreferredTerm>Alpha Fetoprotein L3 to Total Alpha Fetoprotein Ratio Measurement</nciodm:PreferredTerm>
                </EnumeratedItem>
                <EnumeratedItem CodedValue="AG1_5" nciodm:ExtCodeID="C124334">
                    <nciodm:CDISCSynonym>1,5-Anhydroglucitol</nciodm:CDISCSynonym>
                    <nciodm:CDISCDefinition>A measurement of the 1,5-anhydroglucitol in a biological specimen.</nciodm:CDISCDefinition>
                    <nciodm:PreferredTerm>1,5-Anhydroglucitol Measurement</nciodm:PreferredTerm>
                </EnumeratedItem>
                <EnumeratedItem CodedValue="AHBDH" nciodm:ExtCodeID="C111126">
                    <nciodm:CDISCSynonym>Alpha Hydroxybutyrate Dehydrogenase</nciodm:CDISCSynonym>
                    <nciodm:CDISCDefinition>A measurement of the alpha-hydroxybutyrate dehydrogenase in a biological specimen.</nciodm:CDISCDefinition>
                    <nciodm:PreferredTerm>Alpha Hydroxybutyrate Dehydrogenase Measurement</nciodm:PreferredTerm>
                </EnumeratedItem>
                <EnumeratedItem CodedValue="ALA" nciodm:ExtCodeID="C122091">
                    <nciodm:CDISCSynonym>Alanine</nciodm:CDISCSynonym>
                    <nciodm:CDISCDefinition>A measurement of the alanine in a biological specimen.</nciodm:CDISCDefinition>
                    <nciodm:PreferredTerm>Alanine Measurement</nciodm:PreferredTerm>
                </EnumeratedItem>
                <EnumeratedItem CodedValue="ALB" nciodm:ExtCodeID="C64431">
                    <nciodm:CDISCSynonym>Albumin</nciodm:CDISCSynonym>
                    <nciodm:CDISCSynonym>Microalbumin</nciodm:CDISCSynonym>
                    <nciodm:CDISCDefinition>A measurement of the albumin protein in a biological specimen.</nciodm:CDISCDefinition>
                    <nciodm:PreferredTerm>Albumin Measurement</nciodm:PreferredTerm>
                </EnumeratedItem>
                <EnumeratedItem CodedValue="ALBCREAT" nciodm:ExtCodeID="C74761">
                    <nciodm:CDISCSynonym>Albumin/Creatinine</nciodm:CDISCSynonym>
                    <nciodm:CDISCSynonym>Microalbumin/Creatinine Ratio</nciodm:CDISCSynonym>
                    <nciodm:CDISCDefinition>A relative measurement (ratio or percentage) of the albumin to the creatinine in a biological specimen.</nciodm:CDISCDefinition>
                    <nciodm:PreferredTerm>Albumin To Creatinine Protein Ratio Measurement</nciodm:PreferredTerm>
                </EnumeratedItem>
                <EnumeratedItem CodedValue="ALBEXR" nciodm:ExtCodeID="C117829">
                    <nciodm:CDISCSynonym>Albumin Excretion Rate</nciodm:CDISCSynonym>
                    <nciodm:CDISCDefinition>A measurement of the amount of albumin being excreted in urine over a defined period of time (e.g. one hour).</nciodm:CDISCDefinition>
                    <nciodm:PreferredTerm>Albumin Urine Excretion Rate</nciodm:PreferredTerm>
                </EnumeratedItem>
                <EnumeratedItem CodedValue="ALBGLOB" nciodm:ExtCodeID="C74894">
                    <nciodm:CDISCSynonym>Albumin/Globulin</nciodm:CDISCSynonym>
                    <nciodm:CDISCDefinition>The ratio of albumin to globulin in a biological specimen.</nciodm:CDISCDefinition>
                    <nciodm:PreferredTerm>Albumin to Globulin Ratio Measurement</nciodm:PreferredTerm>
                </EnumeratedItem>
                <EnumeratedItem CodedValue="ALBGLYCA" nciodm:ExtCodeID="C122092">
                    <nciodm:CDISCSynonym>Glycated Albumin</nciodm:CDISCSynonym>
                    <nciodm:CDISCDefinition>A measurement of the glycated albumin present in a biological specimen.</nciodm:CDISCDefinition>
                    <nciodm:PreferredTerm>Glycated Albumin Measurement</nciodm:PreferredTerm>
                </EnumeratedItem>
                <EnumeratedItem CodedValue="ALBPROT" nciodm:ExtCodeID="C103453">
                    <nciodm:CDISCSynonym>Albumin/Total Protein</nciodm:CDISCSynonym>
                    <nciodm:CDISCDefinition>A relative measurement (ratio or percentage) of the albumin to total protein in a biological specimen.</nciodm:CDISCDefinition>
                    <nciodm:PreferredTerm>Albumin to Total Protein Ratio Measurement</nciodm:PreferredTerm>
                </EnumeratedItem>
                <EnumeratedItem CodedValue="ALDOLASE" nciodm:ExtCodeID="C74731">
                    <nciodm:CDISCSynonym>Aldolase</nciodm:CDISCSynonym>
                    <nciodm:CDISCDefinition>A measurement of the aldolase enzyme in a biological specimen.</nciodm:CDISCDefinition>
                    <nciodm:PreferredTerm>Aldolase Measurement</nciodm:PreferredTerm>
                </EnumeratedItem>
                <EnumeratedItem CodedValue="ALDSTRN" nciodm:ExtCodeID="C74841">
                    <nciodm:CDISCSynonym>Aldosterone</nciodm:CDISCSynonym>
                    <nciodm:CDISCDefinition>A measurement of the aldosterone hormone in a biological specimen.</nciodm:CDISCDefinition>
                    <nciodm:PreferredTerm>Aldosterone Measurement</nciodm:PreferredTerm>
                </EnumeratedItem>
                <EnumeratedItem CodedValue="ALP" nciodm:ExtCodeID="C64432">
                    <nciodm:CDISCSynonym>Alkaline Phosphatase</nciodm:CDISCSynonym>
                    <nciodm:CDISCDefinition>A measurement of the alkaline phosphatase in a biological specimen.</nciodm:CDISCDefinition>
                    <nciodm:PreferredTerm>Alkaline Phosphatase Measurement</nciodm:PreferredTerm>
                </EnumeratedItem>
                <EnumeratedItem CodedValue="ALPBS" nciodm:ExtCodeID="C92287">
                    <nciodm:CDISCSynonym>Bone Specific Alkaline Phosphatase</nciodm:CDISCSynonym>
                    <nciodm:CDISCDefinition>A measurement of the bone specific alkaline phosphatase isoform in a biological specimen.</nciodm:CDISCDefinition>
                    <nciodm:PreferredTerm>Bone Specific Alkaline Phosphatase Measurement</nciodm:PreferredTerm>
                </EnumeratedItem>
                <EnumeratedItem CodedValue="ALPCREAT" nciodm:ExtCodeID="C79438">
                    <nciodm:CDISCSynonym>Alkaline Phosphatase/Creatinine</nciodm:CDISCSynonym>
                    <nciodm:CDISCDefinition>A relative measurement (ratio or percentage) of the alkaline phosphatase to creatinine in a biological specimen.</nciodm:CDISCDefinition>
                    <nciodm:PreferredTerm>Alkaline Phosphatase to Creatinine Ratio Measurement</nciodm:PreferredTerm>
                </EnumeratedItem>
                <EnumeratedItem CodedValue="ALPIS" nciodm:ExtCodeID="C119266">
                    <nciodm:CDISCSynonym>Intestinal Specific Alkaline Phosphatase</nciodm:CDISCSynonym>
                    <nciodm:CDISCDefinition>A measurement of the intestinal specific alkaline phosphatase isoform in a biological specimen.</nciodm:CDISCDefinition>
                    <nciodm:PreferredTerm>Intestinal Specific Alkaline Phosphatase Measurement</nciodm:PreferredTerm>
                </EnumeratedItem>
                <EnumeratedItem CodedValue="ALPLS" nciodm:ExtCodeID="C119267">
                    <nciodm:CDISCSynonym>Liver Specific Alkaline Phosphatase</nciodm:CDISCSynonym>
                    <nciodm:CDISCDefinition>A measurement of the liver specific alkaline phosphatase isoform in a biological specimen.</nciodm:CDISCDefinition>
                    <nciodm:PreferredTerm>Liver Specific Alkaline Phosphatase Measurement</nciodm:PreferredTerm>
                </EnumeratedItem>
                <EnumeratedItem CodedValue="ALT" nciodm:ExtCodeID="C64433">
                    <nciodm:CDISCSynonym>Alanine Aminotransferase</nciodm:CDISCSynonym>
                    <nciodm:CDISCSynonym>SGPT</nciodm:CDISCSynonym>
                    <nciodm:CDISCDefinition>A measurement of the alanine aminotransferase in a biological specimen.</nciodm:CDISCDefinition>
                    <nciodm:PreferredTerm>Alanine Aminotransferase Measurement</nciodm:PreferredTerm>
                </EnumeratedItem>
                <EnumeratedItem CodedValue="ALTAST" nciodm:ExtCodeID="C106498">
                    <nciodm:CDISCSynonym>ALT/AST</nciodm:CDISCSynonym>
                    <nciodm:CDISCDefinition>A relative measurement (ratio or percentage) of the alanine aminotransferase (ALT) to aspartate aminotransferase (AST) present in a sample.</nciodm:CDISCDefinition>
                    <nciodm:PreferredTerm>Alanine Aminotransferase to Aspartate Aminotransferase Ratio Measurement</nciodm:PreferredTerm>
                </EnumeratedItem>
                <EnumeratedItem CodedValue="ALTCPHRL" nciodm:ExtCodeID="C103349">
                    <nciodm:CDISCSynonym>Alpha Tocopherol</nciodm:CDISCSynonym>
                    <nciodm:CDISCDefinition>A measurement of the alpha tocopherol in a biological specimen.</nciodm:CDISCDefinition>
                    <nciodm:PreferredTerm>Alpha Tocopherol Measurement</nciodm:PreferredTerm>
                </EnumeratedItem>
                <EnumeratedItem CodedValue="ALUMINUM" nciodm:ExtCodeID="C111127">
                    <nciodm:CDISCSynonym>Al</nciodm:CDISCSynonym>
                    <nciodm:CDISCSynonym>Aluminum</nciodm:CDISCSynonym>
                    <nciodm:CDISCDefinition>A measurement of aluminum in a biological specimen.</nciodm:CDISCDefinition>
                    <nciodm:PreferredTerm>Aluminum Measurement</nciodm:PreferredTerm>
                </EnumeratedItem>
                <EnumeratedItem CodedValue="AMA" nciodm:ExtCodeID="C81975">
                    <nciodm:CDISCSynonym>Antimitochondrial Antibodies</nciodm:CDISCSynonym>
                    <nciodm:CDISCSynonym>Mitochondrial Antibody</nciodm:CDISCSynonym>
                    <nciodm:CDISCDefinition>A measurement of the antimitochondrial antibodies in a biological specimen.</nciodm:CDISCDefinition>
                    <nciodm:PreferredTerm>Antimitochondrial Antibody Measurement</nciodm:PreferredTerm>
                </EnumeratedItem>
                <EnumeratedItem CodedValue="AMH" nciodm:ExtCodeID="C120625">
                    <nciodm:CDISCSynonym>Anti-Mullerian Hormone</nciodm:CDISCSynonym>
                    <nciodm:CDISCDefinition>A measurement of the anti-Mullerian hormone in a biological specimen.</nciodm:CDISCDefinition>
                    <nciodm:PreferredTerm>Anti-Mullerian Hormone Measurement</nciodm:PreferredTerm>
                </EnumeratedItem>
                <EnumeratedItem CodedValue="AMMONIA" nciodm:ExtCodeID="C74799">
                    <nciodm:CDISCSynonym>Ammonia</nciodm:CDISCSynonym>
                    <nciodm:CDISCSynonym>NH3</nciodm:CDISCSynonym>
                    <nciodm:CDISCDefinition>A measurement of the ammonia in a biological specimen.</nciodm:CDISCDefinition>
                    <nciodm:PreferredTerm>Ammonia Measurement</nciodm:PreferredTerm>
                </EnumeratedItem>
                <EnumeratedItem CodedValue="AMORPHSD" nciodm:ExtCodeID="C74666">
                    <nciodm:CDISCSynonym>Amorphous Debris</nciodm:CDISCSynonym>
                    <nciodm:CDISCSynonym>Amorphous Sediment</nciodm:CDISCSynonym>
                    <nciodm:CDISCDefinition>A measurement of the amorphous sediment present in a biological specimen.</nciodm:CDISCDefinition>
                    <nciodm:PreferredTerm>Amorphous Sediment Measurement</nciodm:PreferredTerm>
                </EnumeratedItem>
                <EnumeratedItem CodedValue="AMPHET" nciodm:ExtCodeID="C74687">
                    <nciodm:CDISCSynonym>Amphetamine</nciodm:CDISCSynonym>
                    <nciodm:CDISCDefinition>A measurement of any amphetamine class drug present in a biological specimen.</nciodm:CDISCDefinition>
                    <nciodm:PreferredTerm>Amphetamine Drug Class Measurement</nciodm:PreferredTerm>
                </EnumeratedItem>
                <EnumeratedItem CodedValue="AMPHETD" nciodm:ExtCodeID="C102262">
                    <nciodm:CDISCSynonym>Dextroamphetamine</nciodm:CDISCSynonym>
                    <nciodm:CDISCSynonym>d-amphetamine</nciodm:CDISCSynonym>
                    <nciodm:CDISCDefinition>A measurement of the dextroamphetamine in a biological specimen.</nciodm:CDISCDefinition>
                    <nciodm:PreferredTerm>Dextroamphetamine Measurement</nciodm:PreferredTerm>
                </EnumeratedItem>
                <EnumeratedItem CodedValue="AMYLASE" nciodm:ExtCodeID="C64434">
                    <nciodm:CDISCSynonym>Amylase</nciodm:CDISCSynonym>
                    <nciodm:CDISCDefinition>A measurement of the total enzyme amylase in a biological specimen.</nciodm:CDISCDefinition>
                    <nciodm:PreferredTerm>Amylase Measurement</nciodm:PreferredTerm>
                </EnumeratedItem>
                <EnumeratedItem CodedValue="AMYLASEM" nciodm:ExtCodeID="C111243">
                    <nciodm:CDISCSynonym>Macroamylase</nciodm:CDISCSynonym>
                    <nciodm:CDISCDefinition>A measurement of macroamylase in a biological specimen.</nciodm:CDISCDefinition>
                    <nciodm:PreferredTerm>Macroamylase Measurement</nciodm:PreferredTerm>
                </EnumeratedItem>
                <EnumeratedItem CodedValue="AMYLASEP" nciodm:ExtCodeID="C98767">
                    <nciodm:CDISCSynonym>Amylase, Pancreatic</nciodm:CDISCSynonym>
                    <nciodm:CDISCDefinition>A measurement of the pancreatic enzyme amylase in a biological specimen.</nciodm:CDISCDefinition>
                    <nciodm:PreferredTerm>Pancreatic Amylase Measurement</nciodm:PreferredTerm>
                </EnumeratedItem>
                <EnumeratedItem CodedValue="AMYLASES" nciodm:ExtCodeID="C98780">
                    <nciodm:CDISCSynonym>Amylase, Salivary</nciodm:CDISCSynonym>
                    <nciodm:CDISCDefinition>A measurement of the salivary enzyme amylase in a biological specimen.</nciodm:CDISCDefinition>
                    <nciodm:PreferredTerm>Salivary Amylase Measurement</nciodm:PreferredTerm>
                </EnumeratedItem>
                <EnumeratedItem CodedValue="AMYLB38" nciodm:ExtCodeID="C103352">
                    <nciodm:CDISCSynonym>Amyloid Beta 1-38</nciodm:CDISCSynonym>
                    <nciodm:CDISCSynonym>Amyloid Beta 38</nciodm:CDISCSynonym>
                    <nciodm:CDISCSynonym>Amyloid Beta 38 Protein</nciodm:CDISCSynonym>
                    <nciodm:CDISCDefinition>A measurement of amyloid beta protein which is composed of peptides 1 to 38 in a biological specimen.</nciodm:CDISCDefinition>
                    <nciodm:PreferredTerm>Amyloid Beta 1-38 Measurement</nciodm:PreferredTerm>
                </EnumeratedItem>
                <EnumeratedItem CodedValue="AMYLB40" nciodm:ExtCodeID="C103353">
                    <nciodm:CDISCSynonym>Amyloid Beta 1-40</nciodm:CDISCSynonym>
                    <nciodm:CDISCSynonym>Amyloid Beta 40</nciodm:CDISCSynonym>
                    <nciodm:CDISCSynonym>Amyloid Beta 40 Protein</nciodm:CDISCSynonym>
                    <nciodm:CDISCDefinition>A measurement of amyloid beta protein which is composed of peptides 1 to 40 in a biological specimen.</nciodm:CDISCDefinition>
                    <nciodm:PreferredTerm>Amyloid Beta 1-40 Measurement</nciodm:PreferredTerm>
                </EnumeratedItem>
                <EnumeratedItem CodedValue="AMYLB42" nciodm:ExtCodeID="C84809">
                    <nciodm:CDISCSynonym>Amyloid Beta 1-42</nciodm:CDISCSynonym>
                    <nciodm:CDISCSynonym>Amyloid Beta 42</nciodm:CDISCSynonym>
                    <nciodm:CDISCSynonym>Amyloid Beta 42 Protein</nciodm:CDISCSynonym>
                    <nciodm:CDISCDefinition>A measurement of amyloid beta protein which is composed of peptides 1 to 42 in a biological specimen.</nciodm:CDISCDefinition>
                    <nciodm:PreferredTerm>Beta Amyloid 42 Measurement</nciodm:PreferredTerm>
                </EnumeratedItem>
                <EnumeratedItem CodedValue="AMYLOIDA" nciodm:ExtCodeID="C125940">
                    <nciodm:CDISCSynonym>Amyloid A</nciodm:CDISCSynonym>
                    <nciodm:CDISCSynonym>Serum Amyloid A</nciodm:CDISCSynonym>
                    <nciodm:CDISCDefinition>A measurement of the total amyloid a (official name is Serum Amyloid A) in a biological specimen.</nciodm:CDISCDefinition>
                    <nciodm:PreferredTerm>Amyloid A Measurement</nciodm:PreferredTerm>
                </EnumeratedItem>
                <EnumeratedItem CodedValue="AMYLOIDB" nciodm:ExtCodeID="C81999">
                    <nciodm:CDISCSynonym>Amyloid, Beta</nciodm:CDISCSynonym>
                    <nciodm:CDISCSynonym>Beta Amyloid</nciodm:CDISCSynonym>
                    <nciodm:CDISCDefinition>A measurement of the total amyloid beta in a biological specimen.</nciodm:CDISCDefinition>
                    <nciodm:PreferredTerm>Beta Amyloid Measurement</nciodm:PreferredTerm>
                </EnumeratedItem>
                <EnumeratedItem CodedValue="AMYLOIDP" nciodm:ExtCodeID="C81998">
                    <nciodm:CDISCSynonym>Amyloid P</nciodm:CDISCSynonym>
                    <nciodm:CDISCDefinition>A measurement of the total amyloid P in a biological specimen.</nciodm:CDISCDefinition>
                    <nciodm:PreferredTerm>Amyloid P Measurement</nciodm:PreferredTerm>
                </EnumeratedItem>
                <EnumeratedItem CodedValue="ANA" nciodm:ExtCodeID="C74916">
                    <nciodm:CDISCSynonym>Antinuclear Antibodies</nciodm:CDISCSynonym>
                    <nciodm:CDISCDefinition>A measurement of the total antinuclear antibodies (antibodies that attack the body's own tissue) in a biological specimen.</nciodm:CDISCDefinition>
                    <nciodm:PreferredTerm>Antinuclear Antibody Measurement</nciodm:PreferredTerm>
                </EnumeratedItem>
                <EnumeratedItem CodedValue="ANAIGGAB" nciodm:ExtCodeID="C122093">
                    <nciodm:CDISCSynonym>Antinuclear IgG Antibody</nciodm:CDISCSynonym>
                    <nciodm:CDISCDefinition>A measurement of the antinuclear IgG antibody in a biological specimen.</nciodm:CDISCDefinition>
                    <nciodm:PreferredTerm>Antinuclear IgG Antibody Measurement</nciodm:PreferredTerm>
                </EnumeratedItem>
                <EnumeratedItem CodedValue="ANCAB" nciodm:ExtCodeID="C120626">
                    <nciodm:CDISCSynonym>Anti-Neutrophil Cytoplasmic Antibody</nciodm:CDISCSynonym>
                    <nciodm:CDISCDefinition>A measurement of the anti-neutrophil cytoplasmic antibody in a biological specimen.</nciodm:CDISCDefinition>
                    <nciodm:PreferredTerm>Anti-Neutrophil Cytoplasmic Antibody Measurement</nciodm:PreferredTerm>
                </EnumeratedItem>
                <EnumeratedItem CodedValue="ANDSTNDL" nciodm:ExtCodeID="C74842">
                    <nciodm:CDISCSynonym>Androstenediol</nciodm:CDISCSynonym>
                    <nciodm:CDISCDefinition>A measurement of the androstenediol metabolite in a biological specimen.</nciodm:CDISCDefinition>
                    <nciodm:PreferredTerm>Androstenediol Metabolite Measurement</nciodm:PreferredTerm>
                </EnumeratedItem>
                <EnumeratedItem CodedValue="ANDSTNDN" nciodm:ExtCodeID="C74843">
                    <nciodm:CDISCSynonym>4-Androstenedione</nciodm:CDISCSynonym>
                    <nciodm:CDISCSynonym>Androstenedione</nciodm:CDISCSynonym>
                    <nciodm:CDISCDefinition>A measurement of the androstenedione hormone in a biological specimen.</nciodm:CDISCDefinition>
                    <nciodm:PreferredTerm>Androstenedione Measurement</nciodm:PreferredTerm>
                </EnumeratedItem>
                <EnumeratedItem CodedValue="ANGLBIND" nciodm:ExtCodeID="C91372">
                    <nciodm:CDISCSynonym>Antiglobulin Test, Indirect</nciodm:CDISCSynonym>
                    <nciodm:CDISCSynonym>Indirect Coombs Test</nciodm:CDISCSynonym>
                    <nciodm:CDISCDefinition>A test that uses Coombs' reagent to detect the presence of anti-erythrocyte antibodies in a biological specimen.</nciodm:CDISCDefinition>
                    <nciodm:PreferredTerm>Indirect Antiglobulin Test</nciodm:PreferredTerm>
                </EnumeratedItem>
                <EnumeratedItem CodedValue="ANGLOBDR" nciodm:ExtCodeID="C81974">
                    <nciodm:CDISCSynonym>Antiglobulin Test, Direct</nciodm:CDISCSynonym>
                    <nciodm:CDISCSynonym>Direct Coombs Test</nciodm:CDISCSynonym>
                    <nciodm:CDISCDefinition>A measurement of the antibody or complement-coated erythrocytes in a biological specimen in vivo.</nciodm:CDISCDefinition>
                    <nciodm:PreferredTerm>Direct Antiglobulin Test</nciodm:PreferredTerm>
                </EnumeratedItem>
                <EnumeratedItem CodedValue="ANGPT1" nciodm:ExtCodeID="C111128">
                    <nciodm:CDISCSynonym>Angiopoietin 1</nciodm:CDISCSynonym>
                    <nciodm:CDISCDefinition>A measurement of angiopoietin 1 in a biological specimen.</nciodm:CDISCDefinition>
                    <nciodm:PreferredTerm>Angiopoietin 1 Measurement</nciodm:PreferredTerm>
                </EnumeratedItem>
                <EnumeratedItem CodedValue="ANGTNS1" nciodm:ExtCodeID="C74844">
                    <nciodm:CDISCSynonym>Angiotensin I</nciodm:CDISCSynonym>
                    <nciodm:CDISCDefinition>A measurement of the angiotensin I hormone in a biological specimen.</nciodm:CDISCDefinition>
                    <nciodm:PreferredTerm>Angiotensin I Measurement</nciodm:PreferredTerm>
                </EnumeratedItem>
                <EnumeratedItem CodedValue="ANGTNS2" nciodm:ExtCodeID="C74845">
                    <nciodm:CDISCSynonym>Angiotensin II</nciodm:CDISCSynonym>
                    <nciodm:CDISCDefinition>A measurement of the angiotensin II hormone in a biological specimen.</nciodm:CDISCDefinition>
                    <nciodm:PreferredTerm>Angiotensin II Measurement</nciodm:PreferredTerm>
                </EnumeratedItem>
                <EnumeratedItem CodedValue="ANGTNSGN" nciodm:ExtCodeID="C74846">
                    <nciodm:CDISCSynonym>Angiotensin Precursor</nciodm:CDISCSynonym>
                    <nciodm:CDISCSynonym>Angiotensinogen</nciodm:CDISCSynonym>
                    <nciodm:CDISCDefinition>A measurement of the angiotensinogen hormone in a biological specimen.</nciodm:CDISCDefinition>
                    <nciodm:PreferredTerm>Angiotensinogen Measurement</nciodm:PreferredTerm>
                </EnumeratedItem>
                <EnumeratedItem CodedValue="ANIONG" nciodm:ExtCodeID="C74685">
                    <nciodm:CDISCSynonym>Anion Gap</nciodm:CDISCSynonym>
                    <nciodm:CDISCDefinition>A computed estimate of the unmeasured anions (those other than the chloride and bicarbonate anions) in a biological specimen.</nciodm:CDISCDefinition>
                    <nciodm:PreferredTerm>Anion Gap Measurement</nciodm:PreferredTerm>
                </EnumeratedItem>
                <EnumeratedItem CodedValue="ANISO" nciodm:ExtCodeID="C74797">
                    <nciodm:CDISCSynonym>Anisocytes</nciodm:CDISCSynonym>
                    <nciodm:CDISCSynonym>Anisocytosis</nciodm:CDISCSynonym>
                    <nciodm:CDISCDefinition>A measurement of the variability in the size of the red blood cells in a whole blood specimen.</nciodm:CDISCDefinition>
                    <nciodm:PreferredTerm>Anisocyte Measurement</nciodm:PreferredTerm>
                </EnumeratedItem>
                <EnumeratedItem CodedValue="ANP" nciodm:ExtCodeID="C74886">
                    <nciodm:CDISCSynonym>Atrial Natriuretic Peptide</nciodm:CDISCSynonym>
                    <nciodm:CDISCSynonym>Atriopeptin</nciodm:CDISCSynonym>
                    <nciodm:CDISCDefinition>A measurement of the atrial natriuretic peptide in a biological specimen.</nciodm:CDISCDefinition>
                    <nciodm:PreferredTerm>Atrial Natriuretic Peptide Measurement</nciodm:PreferredTerm>
                </EnumeratedItem>
                <EnumeratedItem CodedValue="ANTHRM" nciodm:ExtCodeID="C81958">
                    <nciodm:CDISCSynonym>Antithrombin</nciodm:CDISCSynonym>
                    <nciodm:CDISCSynonym>Antithrombin Activity</nciodm:CDISCSynonym>
                    <nciodm:CDISCSynonym>Antithrombin III</nciodm:CDISCSynonym>
                    <nciodm:CDISCSynonym>Antithrombin III Activity</nciodm:CDISCSynonym>
                    <nciodm:CDISCDefinition>A measurement of the antithrombin activity in a biological specimen.</nciodm:CDISCDefinition>
                    <nciodm:PreferredTerm>Antithrombin Activity Measurement</nciodm:PreferredTerm>
                </EnumeratedItem>
                <EnumeratedItem CodedValue="ANTHRMAG" nciodm:ExtCodeID="C81977">
                    <nciodm:CDISCSynonym>Antithrombin Antigen</nciodm:CDISCSynonym>
                    <nciodm:CDISCSynonym>Antithrombin III Antigen</nciodm:CDISCSynonym>
                    <nciodm:CDISCDefinition>A measurement of the antithrombin antigen in a biological specimen.</nciodm:CDISCDefinition>
                    <nciodm:PreferredTerm>Antithrombin Antigen Measurement</nciodm:PreferredTerm>
                </EnumeratedItem>
                <EnumeratedItem CodedValue="ANTIDPRS" nciodm:ExtCodeID="C74691">
                    <nciodm:CDISCSynonym>Antidepressants</nciodm:CDISCSynonym>
                    <nciodm:CDISCDefinition>A measurement of any antidepressant class drug present in a biological specimen.</nciodm:CDISCDefinition>
                    <nciodm:PreferredTerm>Antidepressant Measurement</nciodm:PreferredTerm>
                </EnumeratedItem>
                <EnumeratedItem CodedValue="ANUAB" nciodm:ExtCodeID="C120627">
                    <nciodm:CDISCSynonym>Anti-Nucleosome Antibody</nciodm:CDISCSynonym>
                    <nciodm:CDISCDefinition>A measurement of the anti-nucleosome antibody in a biological specimen.</nciodm:CDISCDefinition>
                    <nciodm:PreferredTerm>Anti-Nucleosome Antibody Measurement</nciodm:PreferredTerm>
                </EnumeratedItem>
                <EnumeratedItem CodedValue="APLAB" nciodm:ExtCodeID="C102258">
                    <nciodm:CDISCSynonym>Antiphospholipid Antibodies</nciodm:CDISCSynonym>
                    <nciodm:CDISCDefinition>A measurement of the total antiphospholipid antibodies in a biological specimen.</nciodm:CDISCDefinition>
                    <nciodm:PreferredTerm>Antiphospholipid Antibody Measurement</nciodm:PreferredTerm>
                </EnumeratedItem>
                <EnumeratedItem CodedValue="APLIGGAB" nciodm:ExtCodeID="C124335">
                    <nciodm:CDISCSynonym>Anti-Phospholipid IgG Antibody</nciodm:CDISCSynonym>
                    <nciodm:CDISCDefinition>A measurement of the antiphospholipid IgG antibody in a biological specimen.</nciodm:CDISCDefinition>
                    <nciodm:PreferredTerm>Anti-Phospholipid IgG Antibody Measurement</nciodm:PreferredTerm>
                </EnumeratedItem>
                <EnumeratedItem CodedValue="APLIGMAB" nciodm:ExtCodeID="C124336">
                    <nciodm:CDISCSynonym>Anti-Phospholipid IgM Antibody</nciodm:CDISCSynonym>
                    <nciodm:CDISCDefinition>A measurement of the antiphospholipid IgM antibody in a biological specimen.</nciodm:CDISCDefinition>
                    <nciodm:PreferredTerm>Anti-Phospholipid IgM Antibody Measurement</nciodm:PreferredTerm>
                </EnumeratedItem>
                <EnumeratedItem CodedValue="APLSMA2" nciodm:ExtCodeID="C103351">
                    <nciodm:CDISCSynonym>Alpha-2 Antiplasmin</nciodm:CDISCSynonym>
                    <nciodm:CDISCSynonym>Alpha-2 Plasmin Inhibitor</nciodm:CDISCSynonym>
                    <nciodm:CDISCDefinition>A measurement of the alpha-2 antiplasmin in a biological specimen.</nciodm:CDISCDefinition>
                    <nciodm:PreferredTerm>Alpha-2 Antiplasmin Measurement</nciodm:PreferredTerm>
                </EnumeratedItem>
                <EnumeratedItem CodedValue="APLSMA2A" nciodm:ExtCodeID="C122094">
                    <nciodm:CDISCSynonym>Alpha-2 Antiplasmin Activity</nciodm:CDISCSynonym>
                    <nciodm:CDISCDefinition>A measurement of the alpha-2 antiplasmin activity in a biological specimen.</nciodm:CDISCDefinition>
                    <nciodm:PreferredTerm>Alpha-2 Antiplasmin Activity Measurement</nciodm:PreferredTerm>
                </EnumeratedItem>
                <EnumeratedItem CodedValue="APOA" nciodm:ExtCodeID="C124337">
                    <nciodm:CDISCSynonym>Apolipoprotein A</nciodm:CDISCSynonym>
                    <nciodm:CDISCDefinition>A measurement of the total apolipoprotein A in a biological specimen.</nciodm:CDISCDefinition>
                    <nciodm:PreferredTerm>Apolipoprotein A Measurement</nciodm:PreferredTerm>
                </EnumeratedItem>
                <EnumeratedItem CodedValue="APOA1" nciodm:ExtCodeID="C74733">
                    <nciodm:CDISCSynonym>Apolipoprotein A1</nciodm:CDISCSynonym>
                    <nciodm:CDISCDefinition>A measurement of the apolipoprotein A1 in a biological specimen.</nciodm:CDISCDefinition>
                    <nciodm:PreferredTerm>Apolipoprotein A1 Measurement</nciodm:PreferredTerm>
                </EnumeratedItem>
                <EnumeratedItem CodedValue="APOA2" nciodm:ExtCodeID="C82000">
                    <nciodm:CDISCSynonym>Apolipoprotein AII</nciodm:CDISCSynonym>
                    <nciodm:CDISCDefinition>A measurement of the apolipoprotein AII in a biological specimen.</nciodm:CDISCDefinition>
                    <nciodm:PreferredTerm>Apolipoprotein AII Measurement</nciodm:PreferredTerm>
                </EnumeratedItem>
                <EnumeratedItem CodedValue="APOA4" nciodm:ExtCodeID="C103354">
                    <nciodm:CDISCSynonym>Apolipoprotein A4</nciodm:CDISCSynonym>
                    <nciodm:CDISCDefinition>A measurement of the apolipoprotein A4 in a biological specimen.</nciodm:CDISCDefinition>
                    <nciodm:PreferredTerm>Apolipoprotein A4 Measurement</nciodm:PreferredTerm>
                </EnumeratedItem>
                <EnumeratedItem CodedValue="APOA5" nciodm:ExtCodeID="C103355">
                    <nciodm:CDISCSynonym>Apolipoprotein A5</nciodm:CDISCSynonym>
                    <nciodm:CDISCDefinition>A measurement of the apolipoprotein A5 in a biological specimen.</nciodm:CDISCDefinition>
                    <nciodm:PreferredTerm>Apolipoprotein A5 Measurement</nciodm:PreferredTerm>
                </EnumeratedItem>
                <EnumeratedItem CodedValue="APOB" nciodm:ExtCodeID="C74734">
                    <nciodm:CDISCSynonym>Apolipoprotein B</nciodm:CDISCSynonym>
                    <nciodm:CDISCDefinition>A measurement of the total apolipoprotein B in a biological specimen.</nciodm:CDISCDefinition>
                    <nciodm:PreferredTerm>Apolipoprotein B Measurement</nciodm:PreferredTerm>
                </EnumeratedItem>
                <EnumeratedItem CodedValue="APOB100" nciodm:ExtCodeID="C120628">
                    <nciodm:CDISCSynonym>Apolipoprotein B100</nciodm:CDISCSynonym>
                    <nciodm:CDISCDefinition>A measurement of the apolipoprotein B100 in a biological specimen.</nciodm:CDISCDefinition>
                    <nciodm:PreferredTerm>Apolipoprotein B100 Measurement</nciodm:PreferredTerm>
                </EnumeratedItem>
                <EnumeratedItem CodedValue="APOB48" nciodm:ExtCodeID="C120629">
                    <nciodm:CDISCSynonym>Apolipoprotein B48</nciodm:CDISCSynonym>
                    <nciodm:CDISCDefinition>A measurement of the apolipoprotein B48 in a biological specimen.</nciodm:CDISCDefinition>
                    <nciodm:PreferredTerm>Apolipoprotein B48 Measurement</nciodm:PreferredTerm>
                </EnumeratedItem>
                <EnumeratedItem CodedValue="APOBAPA1" nciodm:ExtCodeID="C103356">
                    <nciodm:CDISCSynonym>Apolipoprotein B/Apolipoprotein A1</nciodm:CDISCSynonym>
                    <nciodm:CDISCDefinition>A relative measurement (ratio or percentage) of the Apolipoprotein B to Apolipoprotein A1 in a biological specimen.</nciodm:CDISCDefinition>
                    <nciodm:PreferredTerm>Apolipoprotein B to Apolipoprotein A1 Ratio Measurement</nciodm:PreferredTerm>
                </EnumeratedItem>
                <EnumeratedItem CodedValue="APOC1" nciodm:ExtCodeID="C120630">
                    <nciodm:CDISCSynonym>Apolipoprotein CI</nciodm:CDISCSynonym>
                    <nciodm:CDISCDefinition>A measurement of the apolipoprotein CI in a biological specimen.</nciodm:CDISCDefinition>
                    <nciodm:PreferredTerm>Apolipoprotein CI Measurement</nciodm:PreferredTerm>
                </EnumeratedItem>
                <EnumeratedItem CodedValue="APOC2" nciodm:ExtCodeID="C100427">
                    <nciodm:CDISCSynonym>Apolipoprotein C2</nciodm:CDISCSynonym>
                    <nciodm:CDISCSynonym>Apolipoprotein CII</nciodm:CDISCSynonym>
                    <nciodm:CDISCDefinition>A measurement of the apolipoprotein C2 in a biological specimen.</nciodm:CDISCDefinition>
                    <nciodm:PreferredTerm>Apolipoprotein C2 Measurement</nciodm:PreferredTerm>
                </EnumeratedItem>
                <EnumeratedItem CodedValue="APOC3" nciodm:ExtCodeID="C82001">
                    <nciodm:CDISCSynonym>Apolipoprotein CIII</nciodm:CDISCSynonym>
                    <nciodm:CDISCDefinition>A measurement of the apolipoprotein CIII in a biological specimen.</nciodm:CDISCDefinition>
                    <nciodm:PreferredTerm>Apolipoprotein CIII Measurement</nciodm:PreferredTerm>
                </EnumeratedItem>
                <EnumeratedItem CodedValue="APOE" nciodm:ExtCodeID="C82002">
                    <nciodm:CDISCSynonym>Apolipoprotein E</nciodm:CDISCSynonym>
                    <nciodm:CDISCDefinition>A measurement of the apolipoprotein E in a biological specimen.</nciodm:CDISCDefinition>
                    <nciodm:PreferredTerm>Apolipoprotein E Measurement</nciodm:PreferredTerm>
                </EnumeratedItem>
                <EnumeratedItem CodedValue="APOE4" nciodm:ExtCodeID="C92293">
                    <nciodm:CDISCSynonym>Apolipoprotein E4</nciodm:CDISCSynonym>
                    <nciodm:CDISCDefinition>A measurement of the apolipoprotein E4 in a biological specimen.</nciodm:CDISCDefinition>
                    <nciodm:PreferredTerm>Apolipoprotein E4 Measurement</nciodm:PreferredTerm>
                </EnumeratedItem>
                <EnumeratedItem CodedValue="APOH" nciodm:ExtCodeID="C82003">
                    <nciodm:CDISCSynonym>Apolipoprotein H</nciodm:CDISCSynonym>
                    <nciodm:CDISCDefinition>A measurement of the apolipoprotein H in a biological specimen.</nciodm:CDISCDefinition>
                    <nciodm:PreferredTerm>Apolipoprotein H Measurement</nciodm:PreferredTerm>
                </EnumeratedItem>
                <EnumeratedItem CodedValue="APOJ" nciodm:ExtCodeID="C100428">
                    <nciodm:CDISCSynonym>Apolipoprotein J</nciodm:CDISCSynonym>
                    <nciodm:CDISCSynonym>Clusterin</nciodm:CDISCSynonym>
                    <nciodm:CDISCDefinition>A measurement of the apolipoprotein J in a biological specimen.</nciodm:CDISCDefinition>
                    <nciodm:PreferredTerm>Apolipoprotein J Measurement</nciodm:PreferredTerm>
                </EnumeratedItem>
                <EnumeratedItem CodedValue="APOJCRT" nciodm:ExtCodeID="C111130">
                    <nciodm:CDISCSynonym>Apolipoprotein J/Creatinine</nciodm:CDISCSynonym>
                    <nciodm:CDISCSynonym>Clusterin/Creatinine</nciodm:CDISCSynonym>
                    <nciodm:CDISCDefinition>A relative measurement (ratio or percentage) of the apolipoprotein J to creatinine in a biological specimen.</nciodm:CDISCDefinition>
                    <nciodm:PreferredTerm>Apolipoprotein J to Creatinine Ratio Measurement</nciodm:PreferredTerm>
                </EnumeratedItem>
                <EnumeratedItem CodedValue="APPA" nciodm:ExtCodeID="C119268">
                    <nciodm:CDISCSynonym>Amyloid Alpha Precursor Protein</nciodm:CDISCSynonym>
                    <nciodm:CDISCDefinition>A measurement of the amyloid alpha precursor protein present in a biological specimen.</nciodm:CDISCDefinition>
                    <nciodm:PreferredTerm>Amyloid Alpha Precursor Protein Measurement</nciodm:PreferredTerm>
                </EnumeratedItem>
                <EnumeratedItem CodedValue="APPB" nciodm:ExtCodeID="C105438">
                    <nciodm:CDISCSynonym>Amyloid Beta Precursor</nciodm:CDISCSynonym>
                    <nciodm:CDISCSynonym>Amyloid Beta Precursor Protein</nciodm:CDISCSynonym>
                    <nciodm:CDISCSynonym>Amyloid Precursor Beta</nciodm:CDISCSynonym>
                    <nciodm:CDISCSynonym>Amyloid Precursor Protein</nciodm:CDISCSynonym>
                    <nciodm:CDISCDefinition>A measurement of the amyloid beta precursor protein present in a biological specimen.</nciodm:CDISCDefinition>
                    <nciodm:PreferredTerm>Amyloid Beta Precursor Protein Measurement</nciodm:PreferredTerm>
                </EnumeratedItem>
                <EnumeratedItem CodedValue="APPEAR" nciodm:ExtCodeID="C25377">
                    <nciodm:CDISCSynonym>Specimen Appearance</nciodm:CDISCSynonym>
                    <nciodm:CDISCDefinition>The outward or visible aspect of a specimen.</nciodm:CDISCDefinition>
                    <nciodm:PreferredTerm>Appearance</nciodm:PreferredTerm>
                </EnumeratedItem>
                <EnumeratedItem CodedValue="APPT" nciodm:ExtCodeID="C119269">
                    <nciodm:CDISCSynonym>Total Amyloid Precursor Protein</nciodm:CDISCSynonym>
                    <nciodm:CDISCDefinition>A measurement of the total amyloid precursor protein present in a biological specimen.</nciodm:CDISCDefinition>
                    <nciodm:PreferredTerm>Total Amyloid Precursor Protein Measurement</nciodm:PreferredTerm>
                </EnumeratedItem>
                <EnumeratedItem CodedValue="APRIL" nciodm:ExtCodeID="C111123">
                    <nciodm:CDISCSynonym>A Proliferation-Inducing Ligand</nciodm:CDISCSynonym>
                    <nciodm:CDISCSynonym>CD256</nciodm:CDISCSynonym>
                    <nciodm:CDISCSynonym>TNFSF13</nciodm:CDISCSynonym>
                    <nciodm:CDISCSynonym>Tumor Necrosis Factor Ligand Superfamily Member 13</nciodm:CDISCSynonym>
                    <nciodm:CDISCDefinition>A measurement of the a proliferation-inducing ligand in a biological specimen.</nciodm:CDISCDefinition>
                    <nciodm:PreferredTerm>A Proliferation-Inducing Ligand Measurement</nciodm:PreferredTerm>
                </EnumeratedItem>
                <EnumeratedItem CodedValue="APROTCRS" nciodm:ExtCodeID="C100471">
                    <nciodm:CDISCSynonym>Activated Protein C Resistance</nciodm:CDISCSynonym>
                    <nciodm:CDISCSynonym>Factor V Leiden Screen</nciodm:CDISCSynonym>
                    <nciodm:CDISCDefinition>A measurement of the resistance in the anticoagulation response to activated protein C in a biological specimen.</nciodm:CDISCDefinition>
                    <nciodm:PreferredTerm>Activated Protein C Resistance Measurement</nciodm:PreferredTerm>
                </EnumeratedItem>
                <EnumeratedItem CodedValue="APTT" nciodm:ExtCodeID="C38462">
                    <nciodm:CDISCSynonym>Activated Partial Thromboplastin Time</nciodm:CDISCSynonym>
                    <nciodm:CDISCDefinition>A measurement of the length of time that it takes for clotting to occur when reagents are added to a plasma specimen. The test is partial due to the absence of tissue factor (Factor III) from the reaction mixture.</nciodm:CDISCDefinition>
                    <nciodm:PreferredTerm>Partial Thromboplastin Time</nciodm:PreferredTerm>
                </EnumeratedItem>
                <EnumeratedItem CodedValue="APTTLAS" nciodm:ExtCodeID="C102277">
                    <nciodm:CDISCSynonym>APTT-LA</nciodm:CDISCSynonym>
                    <nciodm:CDISCSynonym>Lupus Anticoagulant Sensitive APTT</nciodm:CDISCSynonym>
                    <nciodm:CDISCDefinition>A measurement of the length of time that it takes for clotting to occur when a lupus sensitive reagent is added to a plasma specimen.</nciodm:CDISCDefinition>
                    <nciodm:PreferredTerm>Lupus Anticoagulant Sensitive APTT Measurement</nciodm:PreferredTerm>
                </EnumeratedItem>
                <EnumeratedItem CodedValue="APTTSTND" nciodm:ExtCodeID="C98862">
                    <nciodm:CDISCSynonym>Activated PTT/Standard</nciodm:CDISCSynonym>
                    <nciodm:CDISCSynonym>Activated PTT/Standard PTT</nciodm:CDISCSynonym>
                    <nciodm:CDISCSynonym>Activated Partial Thromboplastin Time/Standard Thromboplastin Time</nciodm:CDISCSynonym>
                    <nciodm:CDISCDefinition>A relative measurement (ratio or percentage) of the subject's partial thromboplastin time to a standard or control partial thromboplastin time.</nciodm:CDISCDefinition>
                    <nciodm:PreferredTerm>Activated PTT/Standard Ratio Measurement</nciodm:PreferredTerm>
                </EnumeratedItem>
                <EnumeratedItem CodedValue="ARA" nciodm:ExtCodeID="C102259">
                    <nciodm:CDISCSynonym>Arachidonic Acid</nciodm:CDISCSynonym>
                    <nciodm:CDISCDefinition>A measurement of the arachidonic acid present in a biological specimen.</nciodm:CDISCDefinition>
                    <nciodm:PreferredTerm>Arachidonic Acid Measurement</nciodm:PreferredTerm>
                </EnumeratedItem>
                <EnumeratedItem CodedValue="ARG" nciodm:ExtCodeID="C122095">
                    <nciodm:CDISCSynonym>Arginine</nciodm:CDISCSynonym>
                    <nciodm:CDISCDefinition>A measurement of the arginine in a biological specimen.</nciodm:CDISCDefinition>
                    <nciodm:PreferredTerm>Arginine Measurement</nciodm:PreferredTerm>
                </EnumeratedItem>
                <EnumeratedItem CodedValue="ARR" nciodm:ExtCodeID="C124338">
                    <nciodm:CDISCSynonym>Aldosterone/Renin Activity</nciodm:CDISCSynonym>
                    <nciodm:CDISCDefinition>A relative measurement (ratio) of the aldosterone to renin activity in a biological specimen.</nciodm:CDISCDefinition>
                    <nciodm:PreferredTerm>Aldosterone to Renin Activity Ratio Measurement</nciodm:PreferredTerm>
                </EnumeratedItem>
                <EnumeratedItem CodedValue="ASCAB" nciodm:ExtCodeID="C81976">
                    <nciodm:CDISCSynonym>Anti-Saccharomyces cerevisiae Antibody</nciodm:CDISCSynonym>
                    <nciodm:CDISCDefinition>A measurement of the anti-Saccharomyces cerevisiae antibody in a biological specimen.</nciodm:CDISCDefinition>
                    <nciodm:PreferredTerm>Anti-Saccharomyces cerevisiae Antibody Measurement</nciodm:PreferredTerm>
                </EnumeratedItem>
                <EnumeratedItem CodedValue="ASN" nciodm:ExtCodeID="C122096">
                    <nciodm:CDISCSynonym>Asparagine</nciodm:CDISCSynonym>
                    <nciodm:CDISCDefinition>A measurement of the asparagine in a biological specimen.</nciodm:CDISCDefinition>
                    <nciodm:PreferredTerm>Asparagine Measurement</nciodm:PreferredTerm>
                </EnumeratedItem>
                <EnumeratedItem CodedValue="ASP" nciodm:ExtCodeID="C122097">
                    <nciodm:CDISCSynonym>Aspartate</nciodm:CDISCSynonym>
                    <nciodm:CDISCSynonym>Aspartic Acid</nciodm:CDISCSynonym>
                    <nciodm:CDISCDefinition>A measurement of the aspartic acid in a biological specimen.</nciodm:CDISCDefinition>
                    <nciodm:PreferredTerm>Aspartic Acid Measurement</nciodm:PreferredTerm>
                </EnumeratedItem>
                <EnumeratedItem CodedValue="ASSDNA" nciodm:ExtCodeID="C92269">
                    <nciodm:CDISCSynonym>Anti-Single Stranded DNA IgG</nciodm:CDISCSynonym>
                    <nciodm:CDISCDefinition>A measurement of the anti-single stranded DNA IgG antibody in a biological specimen.</nciodm:CDISCDefinition>
                    <nciodm:PreferredTerm>Anti-Single Stranded DNA IgG Measurement</nciodm:PreferredTerm>
                </EnumeratedItem>
                <EnumeratedItem CodedValue="AST" nciodm:ExtCodeID="C64467">
                    <nciodm:CDISCSynonym>Aspartate Aminotransferase</nciodm:CDISCSynonym>
                    <nciodm:CDISCSynonym>SGOT</nciodm:CDISCSynonym>
                    <nciodm:CDISCDefinition>A measurement of the aspartate aminotransferase in a biological specimen.</nciodm:CDISCDefinition>
                    <nciodm:PreferredTerm>Aspartate Aminotransferase Measurement</nciodm:PreferredTerm>
                </EnumeratedItem>
                <EnumeratedItem CodedValue="ASTAG" nciodm:ExtCodeID="C81978">
                    <nciodm:CDISCSynonym>Aspartate Aminotransferase Antigen</nciodm:CDISCSynonym>
                    <nciodm:CDISCSynonym>SGOT Antigen</nciodm:CDISCSynonym>
                    <nciodm:CDISCDefinition>A measurement of the aspartate aminotransferase antigen in a biological specimen.</nciodm:CDISCDefinition>
                    <nciodm:PreferredTerm>Aspartate Aminotransferase Antigen Measurement</nciodm:PreferredTerm>
                </EnumeratedItem>
                <EnumeratedItem CodedValue="ASTCREAT" nciodm:ExtCodeID="C117830">
                    <nciodm:CDISCSynonym>Aspartate Aminotransferase/Creatinine</nciodm:CDISCSynonym>
                    <nciodm:CDISCDefinition>A relative measurement (ratio or percentage) of the aspartate aminotransferase to creatinine in a biological specimen.</nciodm:CDISCDefinition>
                    <nciodm:PreferredTerm>Aspartate Aminotransferase to Creatinine Ratio Measurement</nciodm:PreferredTerm>
                </EnumeratedItem>
                <EnumeratedItem CodedValue="ATPVITE" nciodm:ExtCodeID="C103350">
                    <nciodm:CDISCSynonym>Vitamin E Alpha Tocopherol</nciodm:CDISCSynonym>
                    <nciodm:CDISCDefinition>A relative measurement (ratio or percentage) of alpha-tocopherol to the total vitamin E in a biological specimen.</nciodm:CDISCDefinition>
                    <nciodm:PreferredTerm>Alpha Tocopherol to Vitamin E Ratio Measurement</nciodm:PreferredTerm>
                </EnumeratedItem>
                <EnumeratedItem CodedValue="AUERRODS" nciodm:ExtCodeID="C74657">
                    <nciodm:CDISCSynonym>Auer Rods</nciodm:CDISCSynonym>
                    <nciodm:CDISCDefinition>A measurement of the Auer rods (elongated needle structures that are found in the cytoplasm of leukemic blasts and are formed by clumps of azurophilic granular material) in a biological specimen.</nciodm:CDISCDefinition>
                    <nciodm:PreferredTerm>Auer Rod Measurement</nciodm:PreferredTerm>
                </EnumeratedItem>
                <EnumeratedItem CodedValue="AZURGRAN" nciodm:ExtCodeID="C116185">
                    <nciodm:CDISCSynonym>Azurophilic Granulation</nciodm:CDISCSynonym>
                    <nciodm:CDISCSynonym>Azurophilic Granules</nciodm:CDISCSynonym>
                    <nciodm:CDISCDefinition>An observation of azurophilic granules in a biological specimen.</nciodm:CDISCDefinition>
                    <nciodm:PreferredTerm>Azurophilic Granule Measurement</nciodm:PreferredTerm>
                </EnumeratedItem>
                <EnumeratedItem CodedValue="B2G1GGAB" nciodm:ExtCodeID="C103358">
                    <nciodm:CDISCSynonym>Beta-2 Glycoprotein 1 IgG Antibody</nciodm:CDISCSynonym>
                    <nciodm:CDISCDefinition>A measurement of the Beta-2 glycoprotein 1 IgG antibodies in a biological specimen.</nciodm:CDISCDefinition>
                    <nciodm:PreferredTerm>Beta-2 Glycoprotein 1 IgG Antibody Measurement</nciodm:PreferredTerm>
                </EnumeratedItem>
                <EnumeratedItem CodedValue="B2G1GMAB" nciodm:ExtCodeID="C103359">
                    <nciodm:CDISCSynonym>Beta-2 Glycoprotein 1 IgM Antibody</nciodm:CDISCSynonym>
                    <nciodm:CDISCDefinition>A measurement of the Beta-2 glycoprotein 1 IgM antibodies in a biological specimen.</nciodm:CDISCDefinition>
                    <nciodm:PreferredTerm>Beta-2 Glycoprotein 1 IgM Antibody Measurement</nciodm:PreferredTerm>
                </EnumeratedItem>
                <EnumeratedItem CodedValue="B2GLYAB" nciodm:ExtCodeID="C81979">
                    <nciodm:CDISCSynonym>Beta-2 Glycoprotein Antibody</nciodm:CDISCSynonym>
                    <nciodm:CDISCDefinition>A measurement of the beta-2 glycoprotein antibody in a biological specimen.</nciodm:CDISCDefinition>
                    <nciodm:PreferredTerm>Beta-2 Glycoprotein Antibody Measurement</nciodm:PreferredTerm>
                </EnumeratedItem>
                <EnumeratedItem CodedValue="B2MICG" nciodm:ExtCodeID="C81980">
                    <nciodm:CDISCSynonym>Beta-2 Microglobulin</nciodm:CDISCSynonym>
                    <nciodm:CDISCDefinition>A measurement of the beta-2 microglobulin in a biological specimen.</nciodm:CDISCDefinition>
                    <nciodm:PreferredTerm>Beta-2 Microglobulin Measurement</nciodm:PreferredTerm>
                </EnumeratedItem>
                <EnumeratedItem CodedValue="BACT" nciodm:ExtCodeID="C64469">
                    <nciodm:CDISCSynonym>Bacteria</nciodm:CDISCSynonym>
                    <nciodm:CDISCDefinition>A measurement of the bacteria in a biological specimen.</nciodm:CDISCDefinition>
                    <nciodm:PreferredTerm>Bacterial Count</nciodm:PreferredTerm>
                </EnumeratedItem>
                <EnumeratedItem CodedValue="BAFF" nciodm:ExtCodeID="C111135">
                    <nciodm:CDISCSynonym>B-Cell Activating Factor</nciodm:CDISCSynonym>
                    <nciodm:CDISCDefinition>A measurement of the B-cell activating factor in a biological specimen.</nciodm:CDISCDefinition>
                    <nciodm:PreferredTerm>B-Cell Activating Factor Measurement</nciodm:PreferredTerm>
                </EnumeratedItem>
                <EnumeratedItem CodedValue="BARB" nciodm:ExtCodeID="C74688">
                    <nciodm:CDISCSynonym>Barbiturates</nciodm:CDISCSynonym>
                    <nciodm:CDISCDefinition>A measurement of any barbiturate class drug present in a biological specimen.</nciodm:CDISCDefinition>
                    <nciodm:PreferredTerm>Barbiturate Drug Class Measurement</nciodm:PreferredTerm>
                </EnumeratedItem>
                <EnumeratedItem CodedValue="BASEEXCS" nciodm:ExtCodeID="C119270">
                    <nciodm:CDISCSynonym>Base Excess</nciodm:CDISCSynonym>
                    <nciodm:CDISCDefinition>A measurement of the amount of acid or alkali required to return a biological specimen to a normal pH under standard conditions.</nciodm:CDISCDefinition>
                    <nciodm:PreferredTerm>Base Excess Measurement</nciodm:PreferredTerm>
                </EnumeratedItem>
                <EnumeratedItem CodedValue="BASO" nciodm:ExtCodeID="C64470">
                    <nciodm:CDISCSynonym>Basophils</nciodm:CDISCSynonym>
                    <nciodm:CDISCDefinition>A measurement of the basophils in a biological specimen.</nciodm:CDISCDefinition>
                    <nciodm:PreferredTerm>Total Basophil Count</nciodm:PreferredTerm>
                </EnumeratedItem>
                <EnumeratedItem CodedValue="BASOCE" nciodm:ExtCodeID="C98865">
                    <nciodm:CDISCSynonym>Basophils/Total Cells</nciodm:CDISCSynonym>
                    <nciodm:CDISCDefinition>A relative measurement (ratio or percentage) of the basophils to total cells in a biological specimen (for example a bone marrow specimen).</nciodm:CDISCDefinition>
                    <nciodm:PreferredTerm>Basophil to Total Cell Ratio Measurement</nciodm:PreferredTerm>
                </EnumeratedItem>
                <EnumeratedItem CodedValue="BASOIM" nciodm:ExtCodeID="C96670">
                    <nciodm:CDISCSynonym>Immature Basophils</nciodm:CDISCSynonym>
                    <nciodm:CDISCDefinition>A measurement of the immature basophils in a biological specimen.</nciodm:CDISCDefinition>
                    <nciodm:PreferredTerm>Immature Basophil Count</nciodm:PreferredTerm>
                </EnumeratedItem>
                <EnumeratedItem CodedValue="BASOIMLE" nciodm:ExtCodeID="C96671">
                    <nciodm:CDISCSynonym>Immature Basophils/Leukocytes</nciodm:CDISCSynonym>
                    <nciodm:CDISCDefinition>A relative measurement (ratio or percentage) of immature basophils to total leukocytes in a biological specimen.</nciodm:CDISCDefinition>
                    <nciodm:PreferredTerm>Immature Basophil to Leukocyte Ratio Measurement</nciodm:PreferredTerm>
                </EnumeratedItem>
                <EnumeratedItem CodedValue="BASOLE" nciodm:ExtCodeID="C64471">
                    <nciodm:CDISCSynonym>Basophils/Leukocytes</nciodm:CDISCSynonym>
                    <nciodm:CDISCDefinition>A relative measurement (ratio or percentage) of the basophils to leukocytes in a biological specimen.</nciodm:CDISCDefinition>
                    <nciodm:PreferredTerm>Basophil to Leukocyte Ratio</nciodm:PreferredTerm>
                </EnumeratedItem>
                <EnumeratedItem CodedValue="BBRAB" nciodm:ExtCodeID="C122098">
                    <nciodm:CDISCSynonym>Borrelia burgdorferi Antibody</nciodm:CDISCSynonym>
                    <nciodm:CDISCSynonym>Lyme Antibody</nciodm:CDISCSynonym>
                    <nciodm:CDISCDefinition>A measurement of the total Borrelia burgdorferi antibody in a biological specimen.</nciodm:CDISCDefinition>
                    <nciodm:PreferredTerm>Borrelia burgdorferi Antibody Measurement</nciodm:PreferredTerm>
                </EnumeratedItem>
                <EnumeratedItem CodedValue="BBRIGAAB" nciodm:ExtCodeID="C122099">
                    <nciodm:CDISCSynonym>Borrelia burgdorferi IgA Antibody</nciodm:CDISCSynonym>
                    <nciodm:CDISCSynonym>Lyme IgA Antibody</nciodm:CDISCSynonym>
                    <nciodm:CDISCDefinition>A measurement of the Borrelia burgdorferi IgA antibody in a biological specimen.</nciodm:CDISCDefinition>
                    <nciodm:PreferredTerm>Borrelia burgdorferi IgA Antibody Measurement</nciodm:PreferredTerm>
                </EnumeratedItem>
                <EnumeratedItem CodedValue="BBRIGGAB" nciodm:ExtCodeID="C122100">
                    <nciodm:CDISCSynonym>Borrelia burgdorferi IgG Antibody</nciodm:CDISCSynonym>
                    <nciodm:CDISCSynonym>Lyme IgG Antibody</nciodm:CDISCSynonym>
                    <nciodm:CDISCDefinition>A measurement of the Borrelia burgdorferi IgG antibody in a biological specimen.</nciodm:CDISCDefinition>
                    <nciodm:PreferredTerm>Borrelia burgdorferi IgG Antibody Measurement</nciodm:PreferredTerm>
                </EnumeratedItem>
                <EnumeratedItem CodedValue="BBRIGMAB" nciodm:ExtCodeID="C122101">
                    <nciodm:CDISCSynonym>Borrelia burgdorferi IgM Antibody</nciodm:CDISCSynonym>
                    <nciodm:CDISCSynonym>Lyme IgM Antibody</nciodm:CDISCSynonym>
                    <nciodm:CDISCDefinition>A measurement of the Borrelia burgdorferi IgM antibody in a biological specimen.</nciodm:CDISCDefinition>
                    <nciodm:PreferredTerm>Borrelia burgdorferi IgM Antibody Measurement</nciodm:PreferredTerm>
                </EnumeratedItem>
                <EnumeratedItem CodedValue="BCEFNCTN" nciodm:ExtCodeID="C123455">
                    <nciodm:CDISCSynonym>Beta-cell Function</nciodm:CDISCSynonym>
                    <nciodm:CDISCDefinition>A measurement of the beta cell function (insulin production and secretion) in a biological specimen.</nciodm:CDISCDefinition>
                    <nciodm:PreferredTerm>Beta-cell Function Measurement</nciodm:PreferredTerm>
                </EnumeratedItem>
                <EnumeratedItem CodedValue="BD2" nciodm:ExtCodeID="C122102">
                    <nciodm:CDISCSynonym>Beta-defensin 2</nciodm:CDISCSynonym>
                    <nciodm:CDISCDefinition>A measurement of the beta-defensin 2 in a biological specimen.</nciodm:CDISCDefinition>
                    <nciodm:PreferredTerm>Beta-defensin 2 Measurement</nciodm:PreferredTerm>
                </EnumeratedItem>
                <EnumeratedItem CodedValue="BDNF" nciodm:ExtCodeID="C82004">
                    <nciodm:CDISCSynonym>Brain-Derived Neurotrophic Factor</nciodm:CDISCSynonym>
                    <nciodm:CDISCDefinition>A measurement of the brain-derived neurotrophic factor in a biological specimen.</nciodm:CDISCDefinition>
                    <nciodm:PreferredTerm>Brain-Derived Neurotrophic Factor Measurement</nciodm:PreferredTerm>
                </EnumeratedItem>
                <EnumeratedItem CodedValue="BETACRTN" nciodm:ExtCodeID="C100472">
                    <nciodm:CDISCSynonym>Beta Carotene</nciodm:CDISCSynonym>
                    <nciodm:CDISCSynonym>Beta Carotin</nciodm:CDISCSynonym>
                    <nciodm:CDISCSynonym>b-Carotene</nciodm:CDISCSynonym>
                    <nciodm:CDISCDefinition>A measurement of the beta carotene in a biological specimen.</nciodm:CDISCDefinition>
                    <nciodm:PreferredTerm>Beta Carotene Measurement</nciodm:PreferredTerm>
                </EnumeratedItem>
                <EnumeratedItem CodedValue="BHYXBTR" nciodm:ExtCodeID="C96568">
                    <nciodm:CDISCSynonym>3-Hydroxybutyrate</nciodm:CDISCSynonym>
                    <nciodm:CDISCSynonym>B-Hydroxybutyrate</nciodm:CDISCSynonym>
                    <nciodm:CDISCSynonym>Beta-Hydroxybutyrate</nciodm:CDISCSynonym>
                    <nciodm:CDISCDefinition>A measurement of the total Beta-hydroxybutyrate in a biological specimen.</nciodm:CDISCDefinition>
                    <nciodm:PreferredTerm>Beta-Hydroxybutyrate Measurement</nciodm:PreferredTerm>
                </EnumeratedItem>
                <EnumeratedItem CodedValue="BICARB" nciodm:ExtCodeID="C74667">
                    <nciodm:CDISCSynonym>Bicarbonate</nciodm:CDISCSynonym>
                    <nciodm:CDISCSynonym>HCO3</nciodm:CDISCSynonym>
                    <nciodm:CDISCDefinition>A measurement of the bicarbonate in a biological specimen.</nciodm:CDISCDefinition>
                    <nciodm:PreferredTerm>Bicarbonate Measurement</nciodm:PreferredTerm>
                </EnumeratedItem>
                <EnumeratedItem CodedValue="BILDIR" nciodm:ExtCodeID="C64481">
                    <nciodm:CDISCSynonym>Direct Bilirubin</nciodm:CDISCSynonym>
                    <nciodm:CDISCDefinition>A measurement of the conjugated or water-soluble bilirubin in a biological specimen.</nciodm:CDISCDefinition>
                    <nciodm:PreferredTerm>Direct Bilirubin Measurement</nciodm:PreferredTerm>
                </EnumeratedItem>
                <EnumeratedItem CodedValue="BILEAC" nciodm:ExtCodeID="C74800">
                    <nciodm:CDISCSynonym>Bile Acid</nciodm:CDISCSynonym>
                    <nciodm:CDISCSynonym>Bile Acids</nciodm:CDISCSynonym>
                    <nciodm:CDISCSynonym>Bile Salt</nciodm:CDISCSynonym>
                    <nciodm:CDISCSynonym>Bile Salts</nciodm:CDISCSynonym>
                    <nciodm:CDISCDefinition>A measurement of the total bile acids in a biological specimen.</nciodm:CDISCDefinition>
                    <nciodm:PreferredTerm>Bile Acid Measurement</nciodm:PreferredTerm>
                </EnumeratedItem>
                <EnumeratedItem CodedValue="BILI" nciodm:ExtCodeID="C38037">
                    <nciodm:CDISCSynonym>Bilirubin</nciodm:CDISCSynonym>
                    <nciodm:CDISCSynonym>Total Bilirubin</nciodm:CDISCSynonym>
                    <nciodm:CDISCDefinition>A measurement of the total bilirubin in a biological specimen.</nciodm:CDISCDefinition>
                    <nciodm:PreferredTerm>Total Bilirubin Measurement</nciodm:PreferredTerm>
                </EnumeratedItem>
                <EnumeratedItem CodedValue="BILIND" nciodm:ExtCodeID="C64483">
                    <nciodm:CDISCSynonym>Indirect Bilirubin</nciodm:CDISCSynonym>
                    <nciodm:CDISCDefinition>A measurement of the unconjugated or non-water-soluble bilirubin in a biological specimen.</nciodm:CDISCDefinition>
                    <nciodm:PreferredTerm>Indirect Bilirubin Measurement</nciodm:PreferredTerm>
                </EnumeratedItem>
                <EnumeratedItem CodedValue="BITECE" nciodm:ExtCodeID="C74700">
                    <nciodm:CDISCSynonym>Bite Cells</nciodm:CDISCSynonym>
                    <nciodm:CDISCDefinition>A measurement of the bite cells (erythrocytes with the appearance of a bite having been removed, due to oxidative hemolysis) in a biological specimen.</nciodm:CDISCDefinition>
                    <nciodm:PreferredTerm>Bite Cell Count</nciodm:PreferredTerm>
                </EnumeratedItem>
                <EnumeratedItem CodedValue="BJPROT" nciodm:ExtCodeID="C111136">
                    <nciodm:CDISCSynonym>Bence-Jones Protein</nciodm:CDISCSynonym>
                    <nciodm:CDISCSynonym>Immunoglobulin Light Chains</nciodm:CDISCSynonym>
                    <nciodm:CDISCDefinition>A measurement of the total Bence-Jones protein in a biological specimen.</nciodm:CDISCDefinition>
                    <nciodm:PreferredTerm>Bence-Jones Protein Measurement</nciodm:PreferredTerm>
                </EnumeratedItem>
                <EnumeratedItem CodedValue="BKVVLD" nciodm:ExtCodeID="C98710">
                    <nciodm:CDISCSynonym>BKV Viral Load</nciodm:CDISCSynonym>
                    <nciodm:CDISCDefinition>A measurement of the BK virus viral load in a biological specimen.</nciodm:CDISCDefinition>
                    <nciodm:PreferredTerm>BK Virus Viral Load Measurement</nciodm:PreferredTerm>
                </EnumeratedItem>
                <EnumeratedItem CodedValue="BLAST" nciodm:ExtCodeID="C74605">
                    <nciodm:CDISCSynonym>Blasts</nciodm:CDISCSynonym>
                    <nciodm:CDISCDefinition>A measurement of the blast cells in a biological specimen.</nciodm:CDISCDefinition>
                    <nciodm:PreferredTerm>Blast Count</nciodm:PreferredTerm>
                </EnumeratedItem>
                <EnumeratedItem CodedValue="BLASTIMM" nciodm:ExtCodeID="C103407">
                    <nciodm:CDISCSynonym>Lymphocytes, Immunoblastic</nciodm:CDISCSynonym>
                    <nciodm:CDISCDefinition>A measurement of the immunoblasts in a biological specimen.</nciodm:CDISCDefinition>
                    <nciodm:PreferredTerm>Immunoblast Count</nciodm:PreferredTerm>
                </EnumeratedItem>
                <EnumeratedItem CodedValue="BLASTLE" nciodm:ExtCodeID="C64487">
                    <nciodm:CDISCSynonym>Blasts/Leukocytes</nciodm:CDISCSynonym>
                    <nciodm:CDISCDefinition>A relative measurement (ratio or percentage) of the blasts to leukocytes in a biological specimen.</nciodm:CDISCDefinition>
                    <nciodm:PreferredTerm>Blast to Leukocyte Ratio</nciodm:PreferredTerm>
                </EnumeratedItem>
                <EnumeratedItem CodedValue="BLASTLM" nciodm:ExtCodeID="C74630">
                    <nciodm:CDISCSynonym>Leukemic Blasts</nciodm:CDISCSynonym>
                    <nciodm:CDISCDefinition>A measurement of the leukemic blasts (lymphoblasts that remain in an immature state even when outside the bone marrow) in a biological specimen.</nciodm:CDISCDefinition>
                    <nciodm:PreferredTerm>Leukemic Blast Count</nciodm:PreferredTerm>
                </EnumeratedItem>
                <EnumeratedItem CodedValue="BLEEDT" nciodm:ExtCodeID="C89775">
                    <nciodm:CDISCSynonym>Bleeding Time</nciodm:CDISCSynonym>
                    <nciodm:CDISCSynonym>Clotting Time Homeostasis</nciodm:CDISCSynonym>
                    <nciodm:CDISCDefinition>A measurement of the time from the start to cessation of an induced bleed.</nciodm:CDISCDefinition>
                    <nciodm:PreferredTerm>Bleeding Time</nciodm:PreferredTerm>
                </EnumeratedItem>
                <EnumeratedItem CodedValue="BLSTIMLY" nciodm:ExtCodeID="C106535">
                    <nciodm:CDISCSynonym>Immunoblasts/Lymphocytes</nciodm:CDISCSynonym>
                    <nciodm:CDISCSynonym>Lymphocytes, Immunoblastic/Lymphocytes</nciodm:CDISCSynonym>
                    <nciodm:CDISCDefinition>A relative measurement (ratio or percentage) of immunoblasts to all lymphocytes present in a sample.</nciodm:CDISCDefinition>
                    <nciodm:PreferredTerm>Immunoblasts to Lymphocytes Ratio Measurement</nciodm:PreferredTerm>
                </EnumeratedItem>
                <EnumeratedItem CodedValue="BLSTLMLY" nciodm:ExtCodeID="C74641">
                    <nciodm:CDISCSynonym>Leukemic Blasts/Lymphocytes</nciodm:CDISCSynonym>
                    <nciodm:CDISCDefinition>A relative measurement (ratio or percentage) of the leukemic blasts (immature lymphoblasts) to mature lymphocytes in a biological specimen.</nciodm:CDISCDefinition>
                    <nciodm:PreferredTerm>Leukemic Blast to Lymphocyte Ratio Measurement</nciodm:PreferredTerm>
                </EnumeratedItem>
                <EnumeratedItem CodedValue="BLSTLY" nciodm:ExtCodeID="C102278">
                    <nciodm:CDISCSynonym>Lymphoblasts</nciodm:CDISCSynonym>
                    <nciodm:CDISCDefinition>A measurement of the lymphoblasts (immature cells that differentiate to form lymphocytes) in a biological specimen.</nciodm:CDISCDefinition>
                    <nciodm:PreferredTerm>Lymphoblast Count</nciodm:PreferredTerm>
                </EnumeratedItem>
                <EnumeratedItem CodedValue="BLSTLYLE" nciodm:ExtCodeID="C105444">
                    <nciodm:CDISCSynonym>Lymphoblasts/Leukocytes</nciodm:CDISCSynonym>
                    <nciodm:CDISCDefinition>A relative measurement (ratio or percentage) of the lymphoblasts to leukocytes in a biological specimen.</nciodm:CDISCDefinition>
                    <nciodm:PreferredTerm>Lymphoblast to Leukocyte Ratio Measurement</nciodm:PreferredTerm>
                </EnumeratedItem>
                <EnumeratedItem CodedValue="BLSTMBCE" nciodm:ExtCodeID="C98761">
                    <nciodm:CDISCSynonym>Myeloblasts/Total Cells</nciodm:CDISCSynonym>
                    <nciodm:CDISCDefinition>A relative measurement (ratio or percentage) of the myeloblasts to total cells in a biological specimen (for example a bone marrow specimen).</nciodm:CDISCDefinition>
                    <nciodm:PreferredTerm>Myeloblast to Total Cell Ratio Measurement</nciodm:PreferredTerm>
                </EnumeratedItem>
                <EnumeratedItem CodedValue="BLSTMGK" nciodm:ExtCodeID="C98752">
                    <nciodm:CDISCSynonym>Megakaryoblasts</nciodm:CDISCSynonym>
                    <nciodm:CDISCDefinition>A measurement of the megakaryoblasts in a biological specimen.</nciodm:CDISCDefinition>
                    <nciodm:PreferredTerm>Megakaryoblast Cell Count</nciodm:PreferredTerm>
                </EnumeratedItem>
                <EnumeratedItem CodedValue="BLSTMKCE" nciodm:ExtCodeID="C98753">
                    <nciodm:CDISCSynonym>Megakaryoblasts/Total Cells</nciodm:CDISCSynonym>
                    <nciodm:CDISCDefinition>A relative measurement (ratio or percentage) of the megakaryoblasts to total cells in a biological specimen (for example a bone marrow specimen).</nciodm:CDISCDefinition>
                    <nciodm:PreferredTerm>Megakaryoblast to Total Cell Ratio Measurement</nciodm:PreferredTerm>
                </EnumeratedItem>
                <EnumeratedItem CodedValue="BLSTNMCE" nciodm:ExtCodeID="C98764">
                    <nciodm:CDISCSynonym>Normoblasts/Total Cells</nciodm:CDISCSynonym>
                    <nciodm:CDISCDefinition>A relative measurement (ratio or percentage) of the normoblasts to total cells in a biological specimen (for example a bone marrow specimen).</nciodm:CDISCDefinition>
                    <nciodm:PreferredTerm>Normoblast to Total Cell Ratio Measurement</nciodm:PreferredTerm>
                </EnumeratedItem>
                <EnumeratedItem CodedValue="BLSTPNCE" nciodm:ExtCodeID="C98870">
                    <nciodm:CDISCSynonym>Pronormoblasts/Total Cells</nciodm:CDISCSynonym>
                    <nciodm:CDISCDefinition>A relative measurement (ratio or percentage) of the pronormoblasts to total cells in a biological specimen (for example a bone marrow specimen).</nciodm:CDISCDefinition>
                    <nciodm:PreferredTerm>Pronormoblast to Total Cell Ratio Measurement</nciodm:PreferredTerm>
                </EnumeratedItem>
                <EnumeratedItem CodedValue="BLSTRSID" nciodm:ExtCodeID="C100419">
                    <nciodm:CDISCSynonym>Ringed Sideroblasts</nciodm:CDISCSynonym>
                    <nciodm:CDISCDefinition>A measurement of the ringed sideroblasts (abnormal nucleated erythroblasts with a large number of iron deposits in the perinuclear mitochondria, forming a ring around the nucleus) in a biological specimen.</nciodm:CDISCDefinition>
                    <nciodm:PreferredTerm>Ring Sideroblast Measurement</nciodm:PreferredTerm>
                </EnumeratedItem>
                <EnumeratedItem CodedValue="BLSTSID" nciodm:ExtCodeID="C100418">
                    <nciodm:CDISCSynonym>Sideroblast</nciodm:CDISCSynonym>
                    <nciodm:CDISCDefinition>A measurement of the sideroblasts (nucleated erythroblasts with iron granules in the cytoplasm) in a biological specimen.</nciodm:CDISCDefinition>
                    <nciodm:PreferredTerm>Sideroblast Measurement</nciodm:PreferredTerm>
                </EnumeratedItem>
                <EnumeratedItem CodedValue="BNP" nciodm:ExtCodeID="C74735">
                    <nciodm:CDISCSynonym>B-Type Natriuretic Peptide</nciodm:CDISCSynonym>
                    <nciodm:CDISCSynonym>Brain Natriuretic Peptide</nciodm:CDISCSynonym>
                    <nciodm:CDISCDefinition>A measurement of the brain (B-type) natriuretic peptide in a biological specimen.</nciodm:CDISCDefinition>
                    <nciodm:PreferredTerm>Brain Natriuretic Peptide Measurement</nciodm:PreferredTerm>
                </EnumeratedItem>
                <EnumeratedItem CodedValue="BNPPRO" nciodm:ExtCodeID="C82032">
                    <nciodm:CDISCSynonym>Pro-Brain Natriuretic Peptide</nciodm:CDISCSynonym>
                    <nciodm:CDISCSynonym>ProB-type Natriuretic Peptide</nciodm:CDISCSynonym>
                    <nciodm:CDISCSynonym>proBNP</nciodm:CDISCSynonym>
                    <nciodm:CDISCDefinition>A measurement of the proB-type natriuretic peptide in a biological specimen.</nciodm:CDISCDefinition>
                    <nciodm:PreferredTerm>ProB-Type Natriuretic Peptide Measurement</nciodm:PreferredTerm>
                </EnumeratedItem>
                <EnumeratedItem CodedValue="BNPPRONT" nciodm:ExtCodeID="C96610">
                    <nciodm:CDISCSynonym>N-Terminal ProB-type Natriuretic Peptide</nciodm:CDISCSynonym>
                    <nciodm:CDISCSynonym>N-terminal pro-Brain Natriuretic Peptide</nciodm:CDISCSynonym>
                    <nciodm:CDISCSynonym>NT proBNP II</nciodm:CDISCSynonym>
                    <nciodm:CDISCDefinition>A measurement of the N-terminal proB-type natriuretic peptide in a biological specimen.</nciodm:CDISCDefinition>
                    <nciodm:PreferredTerm>N-Terminal ProB-type Natriuretic Peptide Measurement</nciodm:PreferredTerm>
                </EnumeratedItem>
                <EnumeratedItem CodedValue="BNZDZPN" nciodm:ExtCodeID="C74692">
                    <nciodm:CDISCSynonym>Benzodiazepine</nciodm:CDISCSynonym>
                    <nciodm:CDISCDefinition>A measurement of any benzodiazepine class drug present in a biological specimen.</nciodm:CDISCDefinition>
                    <nciodm:PreferredTerm>Benzodiazepine Measurement</nciodm:PreferredTerm>
                </EnumeratedItem>
                <EnumeratedItem CodedValue="BNZLCGN" nciodm:ExtCodeID="C75350">
                    <nciodm:CDISCSynonym>Benzoylecgonine</nciodm:CDISCSynonym>
                    <nciodm:CDISCSynonym>Cocaine Metabolite</nciodm:CDISCSynonym>
                    <nciodm:CDISCDefinition>A measurement of the benzoylecgonine in a biological specimen.</nciodm:CDISCDefinition>
                    <nciodm:PreferredTerm>Benzoylecgonine Measurement</nciodm:PreferredTerm>
                </EnumeratedItem>
                <EnumeratedItem CodedValue="BPIAB" nciodm:ExtCodeID="C120631">
                    <nciodm:CDISCSynonym>BPI Auto-antibody</nciodm:CDISCSynonym>
                    <nciodm:CDISCSynonym>Bactericidal/Permeability-Inc Protein Ab</nciodm:CDISCSynonym>
                    <nciodm:CDISCDefinition>A measurement of the bactericidal/permeability-increasing protein antibody in a biological specimen.</nciodm:CDISCDefinition>
                    <nciodm:PreferredTerm>Bactericidal/Permeability-Increasing Protein Antibody Measurement</nciodm:PreferredTerm>
                </EnumeratedItem>
                <EnumeratedItem CodedValue="BTECERBC" nciodm:ExtCodeID="C74634">
                    <nciodm:CDISCSynonym>Bite Cells/Erythrocytes</nciodm:CDISCSynonym>
                    <nciodm:CDISCDefinition>A relative measurement (ratio or percentage) of bite cells (erythrocytes with the appearance of a bite having been removed, due to oxidative hemolysis) to all erythrocytes in a biological specimen.</nciodm:CDISCDefinition>
                    <nciodm:PreferredTerm>Bite Cell to Erythrocyte Ratio Measurement</nciodm:PreferredTerm>
                </EnumeratedItem>
                <EnumeratedItem CodedValue="BTP" nciodm:ExtCodeID="C100426">
                    <nciodm:CDISCSynonym>Beta-Trace Protein</nciodm:CDISCSynonym>
                    <nciodm:CDISCDefinition>A measurement of the beta-trace protein in a biological specimen.</nciodm:CDISCDefinition>
                    <nciodm:PreferredTerm>Beta-Trace Protein Measurement</nciodm:PreferredTerm>
                </EnumeratedItem>
                <EnumeratedItem CodedValue="BUCHE" nciodm:ExtCodeID="C111142">
                    <nciodm:CDISCSynonym>Acylcholine Acylhydrolase</nciodm:CDISCSynonym>
                    <nciodm:CDISCSynonym>Butyrylcholinesterase</nciodm:CDISCSynonym>
                    <nciodm:CDISCSynonym>Non-neuronal Cholinesterase</nciodm:CDISCSynonym>
                    <nciodm:CDISCSynonym>Plasma Cholinesterase</nciodm:CDISCSynonym>
                    <nciodm:CDISCSynonym>Pseudocholinesterase</nciodm:CDISCSynonym>
                    <nciodm:CDISCDefinition>A measurement of the total butyrylcholinesterase in a biological specimen.</nciodm:CDISCDefinition>
                    <nciodm:PreferredTerm>Butyrylcholinesterase Measurement</nciodm:PreferredTerm>
                </EnumeratedItem>
                <EnumeratedItem CodedValue="BUPREN" nciodm:ExtCodeID="C75352">
                    <nciodm:CDISCSynonym>Buprenorphine</nciodm:CDISCSynonym>
                    <nciodm:CDISCDefinition>A measurement of the buprenorphine drug present in a biological specimen.</nciodm:CDISCDefinition>
                    <nciodm:PreferredTerm>Buprenorphine Measurement</nciodm:PreferredTerm>
                </EnumeratedItem>
                <EnumeratedItem CodedValue="BURRCE" nciodm:ExtCodeID="C74701">
                    <nciodm:CDISCSynonym>Burr Cells</nciodm:CDISCSynonym>
                    <nciodm:CDISCSynonym>Keratocytes</nciodm:CDISCSynonym>
                    <nciodm:CDISCDefinition>A measurement of the Burr cells (erythrocytes characterized by the presence of small, blunt projections evenly distributed across the cell surface) in a biological specimen.</nciodm:CDISCDefinition>
                    <nciodm:PreferredTerm>Burr Cell Count</nciodm:PreferredTerm>
                </EnumeratedItem>
                <EnumeratedItem CodedValue="C1QAB" nciodm:ExtCodeID="C80173">
                    <nciodm:CDISCSynonym>Complement C1q Antibody</nciodm:CDISCSynonym>
                    <nciodm:CDISCDefinition>A measurement of the complement C1q antibody in a biological specimen.</nciodm:CDISCDefinition>
                    <nciodm:PreferredTerm>Complement C1q Antibody Measurement</nciodm:PreferredTerm>
                </EnumeratedItem>
                <EnumeratedItem CodedValue="C3" nciodm:ExtCodeID="C80174">
                    <nciodm:CDISCSynonym>Complement C3</nciodm:CDISCSynonym>
                    <nciodm:CDISCDefinition>A measurement of the complement C3 in a biological specimen.</nciodm:CDISCDefinition>
                    <nciodm:PreferredTerm>Complement C3 Measurement</nciodm:PreferredTerm>
                </EnumeratedItem>
                <EnumeratedItem CodedValue="C3A" nciodm:ExtCodeID="C80175">
                    <nciodm:CDISCSynonym>ASP, Complement C3 DesArg, Acetylation-stimulating Protein</nciodm:CDISCSynonym>
                    <nciodm:CDISCSynonym>Complement C3a</nciodm:CDISCSynonym>
                    <nciodm:CDISCDefinition>A measurement of the complement C3a in a biological specimen.</nciodm:CDISCDefinition>
                    <nciodm:PreferredTerm>Complement C3a Measurement</nciodm:PreferredTerm>
                </EnumeratedItem>
                <EnumeratedItem CodedValue="C3B" nciodm:ExtCodeID="C80176">
                    <nciodm:CDISCSynonym>Complement C3b</nciodm:CDISCSynonym>
                    <nciodm:CDISCDefinition>A measurement of the complement C3b in a biological specimen.</nciodm:CDISCDefinition>
                    <nciodm:PreferredTerm>Complement C3b Measurement</nciodm:PreferredTerm>
                </EnumeratedItem>
                <EnumeratedItem CodedValue="C3DAB" nciodm:ExtCodeID="C119271">
                    <nciodm:CDISCSynonym>Complement C3d Antibody</nciodm:CDISCSynonym>
                    <nciodm:CDISCDefinition>A measurement of the complement C3d antibody in a biological specimen.</nciodm:CDISCDefinition>
                    <nciodm:PreferredTerm>Complement C3d Antibody Measurement</nciodm:PreferredTerm>
                </EnumeratedItem>
                <EnumeratedItem CodedValue="C4" nciodm:ExtCodeID="C80177">
                    <nciodm:CDISCSynonym>Complement C4</nciodm:CDISCSynonym>
                    <nciodm:CDISCDefinition>A measurement of the complement C4 in a biological specimen.</nciodm:CDISCDefinition>
                    <nciodm:PreferredTerm>Complement C4 Measurement</nciodm:PreferredTerm>
                </EnumeratedItem>
                <EnumeratedItem CodedValue="C4A" nciodm:ExtCodeID="C80178">
                    <nciodm:CDISCSynonym>Complement C4a</nciodm:CDISCSynonym>
                    <nciodm:CDISCDefinition>A measurement of the complement C4a in a biological specimen.</nciodm:CDISCDefinition>
                    <nciodm:PreferredTerm>Complement C4a Measurement</nciodm:PreferredTerm>
                </EnumeratedItem>
                <EnumeratedItem CodedValue="C5A" nciodm:ExtCodeID="C80179">
                    <nciodm:CDISCSynonym>Complement C5a</nciodm:CDISCSynonym>
                    <nciodm:CDISCDefinition>A measurement of the complement C5a in a biological specimen.</nciodm:CDISCDefinition>
                    <nciodm:PreferredTerm>Complement C5a Measurement</nciodm:PreferredTerm>
                </EnumeratedItem>
                <EnumeratedItem CodedValue="CA" nciodm:ExtCodeID="C64488">
                    <nciodm:CDISCSynonym>Calcium</nciodm:CDISCSynonym>
                    <nciodm:CDISCDefinition>A measurement of the calcium in a biological specimen.</nciodm:CDISCDefinition>
                    <nciodm:PreferredTerm>Calcium Measurement</nciodm:PreferredTerm>
                </EnumeratedItem>
                <EnumeratedItem CodedValue="CA125AG" nciodm:ExtCodeID="C79089">
                    <nciodm:CDISCSynonym>Cancer Antigen 125</nciodm:CDISCSynonym>
                    <nciodm:CDISCDefinition>A measurement of the cancer antigen 125 in a biological specimen.</nciodm:CDISCDefinition>
                    <nciodm:PreferredTerm>CA-125 Measurement</nciodm:PreferredTerm>
                </EnumeratedItem>
                <EnumeratedItem CodedValue="CA15_3AG" nciodm:ExtCodeID="C103362">
                    <nciodm:CDISCSynonym>Cancer Antigen 15-3</nciodm:CDISCSynonym>
                    <nciodm:CDISCDefinition>A measurement of the cancer antigen 15-3 in a biological specimen.</nciodm:CDISCDefinition>
                    <nciodm:PreferredTerm>Cancer Antigen 15-3 Measurement</nciodm:PreferredTerm>
                </EnumeratedItem>
                <EnumeratedItem CodedValue="CA19_9AG" nciodm:ExtCodeID="C81982">
                    <nciodm:CDISCSynonym>Cancer Antigen 19-9</nciodm:CDISCSynonym>
                    <nciodm:CDISCDefinition>A measurement of the cancer antigen 19-9 in a biological specimen.</nciodm:CDISCDefinition>
                    <nciodm:PreferredTerm>Cancer Antigen 19-9 Measurement</nciodm:PreferredTerm>
                </EnumeratedItem>
                <EnumeratedItem CodedValue="CA1AG" nciodm:ExtCodeID="C103361">
                    <nciodm:CDISCSynonym>Cancer Antigen 1</nciodm:CDISCSynonym>
                    <nciodm:CDISCDefinition>A measurement of the cancer antigen 1 in a biological specimen.</nciodm:CDISCDefinition>
                    <nciodm:PreferredTerm>Cancer Antigen 1 Measurement</nciodm:PreferredTerm>
                </EnumeratedItem>
                <EnumeratedItem CodedValue="CA2729AG" nciodm:ExtCodeID="C111143">
                    <nciodm:CDISCSynonym>Cancer Antigen 27-29</nciodm:CDISCSynonym>
                    <nciodm:CDISCDefinition>A measurement of the cancer antigen 27-29 in a biological specimen.</nciodm:CDISCDefinition>
                    <nciodm:PreferredTerm>Cancer Antigen 27-29 Measurement</nciodm:PreferredTerm>
                </EnumeratedItem>
                <EnumeratedItem CodedValue="CA72_4AG" nciodm:ExtCodeID="C106505">
                    <nciodm:CDISCSynonym>CA 72-4</nciodm:CDISCSynonym>
                    <nciodm:CDISCSynonym>Cancer Antigen 72-4</nciodm:CDISCSynonym>
                    <nciodm:CDISCSynonym>Carbohydrate Antigen 72-4</nciodm:CDISCSynonym>
                    <nciodm:CDISCDefinition>A measurement of the cancer antigen 72-4 in a biological specimen.</nciodm:CDISCDefinition>
                    <nciodm:PreferredTerm>Cancer Antigen 72-4 Measurement</nciodm:PreferredTerm>
                </EnumeratedItem>
                <EnumeratedItem CodedValue="CABOT" nciodm:ExtCodeID="C74702">
                    <nciodm:CDISCSynonym>Cabot Rings</nciodm:CDISCSynonym>
                    <nciodm:CDISCDefinition>A measurement of the Cabot rings (red-purple staining, threadlike, ring or figure 8 shaped filaments in an erythrocyte) in a biological specimen.</nciodm:CDISCDefinition>
                    <nciodm:PreferredTerm>Cabot Ring Count</nciodm:PreferredTerm>
                </EnumeratedItem>
                <EnumeratedItem CodedValue="CACLR" nciodm:ExtCodeID="C96589">
                    <nciodm:CDISCSynonym>Calcium Clearance</nciodm:CDISCSynonym>
                    <nciodm:CDISCDefinition>A measurement of the volume of serum or plasma that would be cleared of calcium by excretion of urine for a specified unit of time (e.g. one minute).</nciodm:CDISCDefinition>
                    <nciodm:PreferredTerm>Calcium Clearance Measurement</nciodm:PreferredTerm>
                </EnumeratedItem>
                <EnumeratedItem CodedValue="CACR" nciodm:ExtCodeID="C119272">
                    <nciodm:CDISCSynonym>Calcium Corrected</nciodm:CDISCSynonym>
                    <nciodm:CDISCDefinition>A measurement of calcium, which has been corrected for albumin, in a biological specimen.</nciodm:CDISCDefinition>
                    <nciodm:PreferredTerm>Calcium Corrected Measurement</nciodm:PreferredTerm>
                </EnumeratedItem>
                <EnumeratedItem CodedValue="CACREAT" nciodm:ExtCodeID="C79439">
                    <nciodm:CDISCSynonym>Calcium/Creatinine</nciodm:CDISCSynonym>
                    <nciodm:CDISCDefinition>A relative measurement (ratio or percentage) of the calcium to creatinine in a biological specimen.</nciodm:CDISCDefinition>
                    <nciodm:PreferredTerm>Calcium to Creatinine Ratio Measurement</nciodm:PreferredTerm>
                </EnumeratedItem>
                <EnumeratedItem CodedValue="CAEXR" nciodm:ExtCodeID="C117831">
                    <nciodm:CDISCSynonym>Calcium Excretion Rate</nciodm:CDISCSynonym>
                    <nciodm:CDISCDefinition>A measurement of the amount of calcium being excreted in urine over a defined period of time (e.g. one hour).</nciodm:CDISCDefinition>
                    <nciodm:PreferredTerm>Calcium Urine Excretion Rate</nciodm:PreferredTerm>
                </EnumeratedItem>
                <EnumeratedItem CodedValue="CAFFEINE" nciodm:ExtCodeID="C75346">
                    <nciodm:CDISCSynonym>Caffeine</nciodm:CDISCSynonym>
                    <nciodm:CDISCDefinition>A measurement of the caffeine in a biological specimen.</nciodm:CDISCDefinition>
                    <nciodm:PreferredTerm>Caffeine Measurement</nciodm:PreferredTerm>
                </EnumeratedItem>
                <EnumeratedItem CodedValue="CAION" nciodm:ExtCodeID="C81948">
                    <nciodm:CDISCSynonym>Calcium, Ionized</nciodm:CDISCSynonym>
                    <nciodm:CDISCDefinition>A measurement of the ionized calcium in a biological specimen.</nciodm:CDISCDefinition>
                    <nciodm:PreferredTerm>Ionized Calcium Measurement</nciodm:PreferredTerm>
                </EnumeratedItem>
                <EnumeratedItem CodedValue="CAIONPH" nciodm:ExtCodeID="C125941">
                    <nciodm:CDISCSynonym>Calcium, Ionized pH Adjusted</nciodm:CDISCSynonym>
                    <nciodm:CDISCDefinition>A measurement of the pH adjusted ionized calcium in a biological specimen.</nciodm:CDISCDefinition>
                    <nciodm:PreferredTerm>Ionized pH Adjusted Calcium Measurement</nciodm:PreferredTerm>
                </EnumeratedItem>
                <EnumeratedItem CodedValue="CALB" nciodm:ExtCodeID="C125942">
                    <nciodm:CDISCSynonym>Calbindin</nciodm:CDISCSynonym>
                    <nciodm:CDISCDefinition>A measurement of the total calbindin in a biological specimen.</nciodm:CDISCDefinition>
                    <nciodm:PreferredTerm>Calbindin Measurement</nciodm:PreferredTerm>
                </EnumeratedItem>
                <EnumeratedItem CodedValue="CALPRO" nciodm:ExtCodeID="C82005">
                    <nciodm:CDISCSynonym>Calprotectin</nciodm:CDISCSynonym>
                    <nciodm:CDISCDefinition>A measurement of the calprotectin in a biological specimen.</nciodm:CDISCDefinition>
                    <nciodm:PreferredTerm>Calprotectin Measurement</nciodm:PreferredTerm>
                </EnumeratedItem>
                <EnumeratedItem CodedValue="CAMP" nciodm:ExtCodeID="C124339">
                    <nciodm:CDISCSynonym>Cyclic Adenosine 3,5-Monophosphate</nciodm:CDISCSynonym>
                    <nciodm:CDISCDefinition>A measurement of cyclic adenosine 3,5-monophosphate in a biological specimen.</nciodm:CDISCDefinition>
                    <nciodm:PreferredTerm>Cyclic Adenosine 3,5-Monophosphate Measurement</nciodm:PreferredTerm>
                </EnumeratedItem>
                <EnumeratedItem CodedValue="CANNAB" nciodm:ExtCodeID="C74689">
                    <nciodm:CDISCSynonym>Cannabinoids</nciodm:CDISCSynonym>
                    <nciodm:CDISCDefinition>A measurement of any cannabinoid class drug present in a biological specimen.</nciodm:CDISCDefinition>
                    <nciodm:PreferredTerm>Cannabinoid Drug Class Measurement</nciodm:PreferredTerm>
                </EnumeratedItem>
                <EnumeratedItem CodedValue="CAPHOSPD" nciodm:ExtCodeID="C103360">
                    <nciodm:CDISCSynonym>Calcium - Phosphorus Product</nciodm:CDISCSynonym>
                    <nciodm:CDISCDefinition>A measurement of the product of the calcium and phosphate measurements in a biological specimen.</nciodm:CDISCDefinition>
                    <nciodm:PreferredTerm>Calcium and Phosphorus Product Measurement</nciodm:PreferredTerm>
                </EnumeratedItem>
                <EnumeratedItem CodedValue="CARBXHGB" nciodm:ExtCodeID="C96591">
                    <nciodm:CDISCSynonym>Carboxyhemoglobin</nciodm:CDISCSynonym>
                    <nciodm:CDISCDefinition>A measurement of the carboxyhemoglobin, carbon monoxide-bound hemoglobin, in a biological specimen.</nciodm:CDISCDefinition>
                    <nciodm:PreferredTerm>Carboxyhemoglobin Measurement</nciodm:PreferredTerm>
                </EnumeratedItem>
                <EnumeratedItem CodedValue="CARNIT" nciodm:ExtCodeID="C74682">
                    <nciodm:CDISCSynonym>Carnitine</nciodm:CDISCSynonym>
                    <nciodm:CDISCDefinition>A measurement of the total carnitine in a biological specimen.</nciodm:CDISCDefinition>
                    <nciodm:PreferredTerm>Total Carnitine Measurement</nciodm:PreferredTerm>
                </EnumeratedItem>
                <EnumeratedItem CodedValue="CARNITAT" nciodm:ExtCodeID="C92288">
                    <nciodm:CDISCSynonym>Carnitine Acetyl Transferase</nciodm:CDISCSynonym>
                    <nciodm:CDISCDefinition>A measurement of the carnitine acetyl transferase in a biological specimen.</nciodm:CDISCDefinition>
                    <nciodm:PreferredTerm>Carnitine Acetyl Transferase Measurement</nciodm:PreferredTerm>
                </EnumeratedItem>
                <EnumeratedItem CodedValue="CARNITF" nciodm:ExtCodeID="C74677">
                    <nciodm:CDISCSynonym>Carnitine, Free</nciodm:CDISCSynonym>
                    <nciodm:CDISCDefinition>A measurement of the free carnitine in a biological specimen.</nciodm:CDISCDefinition>
                    <nciodm:PreferredTerm>Free Carnitine Measurement</nciodm:PreferredTerm>
                </EnumeratedItem>
                <EnumeratedItem CodedValue="CASTS" nciodm:ExtCodeID="C74763">
                    <nciodm:CDISCSynonym>Casts</nciodm:CDISCSynonym>
                    <nciodm:CDISCDefinition>A statement that indicates casts were looked for in a biological specimen.</nciodm:CDISCDefinition>
                    <nciodm:PreferredTerm>Cast Present Or Absent</nciodm:PreferredTerm>
                </EnumeratedItem>
                <EnumeratedItem CodedValue="CASULPH" nciodm:ExtCodeID="C96590">
                    <nciodm:CDISCSynonym>Calcium Sulphate</nciodm:CDISCSynonym>
                    <nciodm:CDISCDefinition>A measurement of the calcium sulphate in a biological specimen.</nciodm:CDISCDefinition>
                    <nciodm:PreferredTerm>Calcium Sulphate Measurement</nciodm:PreferredTerm>
                </EnumeratedItem>
                <EnumeratedItem CodedValue="CATNINB" nciodm:ExtCodeID="C103357">
                    <nciodm:CDISCSynonym>Beta Catenin</nciodm:CDISCSynonym>
                    <nciodm:CDISCDefinition>A measurement of the beta catenin in a biological specimen.</nciodm:CDISCDefinition>
                    <nciodm:PreferredTerm>Beta Catenin Measurement</nciodm:PreferredTerm>
                </EnumeratedItem>
                <EnumeratedItem CodedValue="CBB" nciodm:ExtCodeID="C80172">
                    <nciodm:CDISCSynonym>Bb Fragment of Complement Factor B</nciodm:CDISCSynonym>
                    <nciodm:CDISCSynonym>Bb Fragment of Factor B</nciodm:CDISCSynonym>
                    <nciodm:CDISCSynonym>Complement Bb</nciodm:CDISCSynonym>
                    <nciodm:CDISCDefinition>A measurement of the Bb fragment of complement factor B in a biological specimen.</nciodm:CDISCDefinition>
                    <nciodm:PreferredTerm>Complement Bb Measurement</nciodm:PreferredTerm>
                </EnumeratedItem>
                <EnumeratedItem CodedValue="CCK" nciodm:ExtCodeID="C74850">
                    <nciodm:CDISCSynonym>Cholecystokinin</nciodm:CDISCSynonym>
                    <nciodm:CDISCSynonym>Pancreozymin</nciodm:CDISCSynonym>
                    <nciodm:CDISCDefinition>A measurement of the cholecystokinin hormone in a biological specimen.</nciodm:CDISCDefinition>
                    <nciodm:PreferredTerm>Cholecystokinin Measurement</nciodm:PreferredTerm>
                </EnumeratedItem>
                <EnumeratedItem CodedValue="CCL17" nciodm:ExtCodeID="C112236">
                    <nciodm:CDISCSynonym>ABCD-2</nciodm:CDISCSynonym>
                    <nciodm:CDISCSynonym>Chemokine (C-C Motif) Ligand 17</nciodm:CDISCSynonym>
                    <nciodm:CDISCSynonym>SCYA17</nciodm:CDISCSynonym>
                    <nciodm:CDISCSynonym>TARC</nciodm:CDISCSynonym>
                    <nciodm:CDISCSynonym>Thymus and Activation Regulated Chemokine</nciodm:CDISCSynonym>
                    <nciodm:CDISCDefinition>A measurement of the CCL17, chemokine (C-C motif) ligand 17, in a biological specimen.</nciodm:CDISCDefinition>
                    <nciodm:PreferredTerm>Chemokine (C-C Motif) Ligand 17 Measurement</nciodm:PreferredTerm>
                </EnumeratedItem>
                <EnumeratedItem CodedValue="CCL18" nciodm:ExtCodeID="C112237">
                    <nciodm:CDISCSynonym>AMAC-1</nciodm:CDISCSynonym>
                    <nciodm:CDISCSynonym>AMAC1</nciodm:CDISCSynonym>
                    <nciodm:CDISCSynonym>CKB7</nciodm:CDISCSynonym>
                    <nciodm:CDISCSynonym>Chemokine (C-C Motif) Ligand 18</nciodm:CDISCSynonym>
                    <nciodm:CDISCSynonym>DC-CK1</nciodm:CDISCSynonym>
                    <nciodm:CDISCSynonym>DCCK1</nciodm:CDISCSynonym>
                    <nciodm:CDISCSynonym>MIP-4</nciodm:CDISCSynonym>
                    <nciodm:CDISCSynonym>Macrophage inflammatory protein-4</nciodm:CDISCSynonym>
                    <nciodm:CDISCSynonym>PARC</nciodm:CDISCSynonym>
                    <nciodm:CDISCSynonym>Pulmonary and Activation-Regulated Chemokine</nciodm:CDISCSynonym>
                    <nciodm:CDISCSynonym>SCYA18</nciodm:CDISCSynonym>
                    <nciodm:CDISCDefinition>A measurement of the CCL18, chemokine (C-C motif) ligand 18, in a biological specimen.</nciodm:CDISCDefinition>
                    <nciodm:PreferredTerm>Chemokine (C-C Motif) Ligand 18 Measurement</nciodm:PreferredTerm>
                </EnumeratedItem>
                <EnumeratedItem CodedValue="CCPAB" nciodm:ExtCodeID="C96595">
                    <nciodm:CDISCSynonym>Cyclic Citrullinated Peptide Antibody</nciodm:CDISCSynonym>
                    <nciodm:CDISCDefinition>A measurement of the cyclic citrullinated peptide antibody in a biological specimen.</nciodm:CDISCDefinition>
                    <nciodm:PreferredTerm>Cyclic Citrullinated Peptide Antibody Measurement</nciodm:PreferredTerm>
                </EnumeratedItem>
                <EnumeratedItem CodedValue="CCR5" nciodm:ExtCodeID="C122103">
                    <nciodm:CDISCSynonym>C-C Chemokine Receptor Type 5</nciodm:CDISCSynonym>
                    <nciodm:CDISCSynonym>CD195</nciodm:CDISCSynonym>
                    <nciodm:CDISCDefinition>A measurement of the CCR5, chemokine (C-C motif) receptor type 5, in a biological specimen.</nciodm:CDISCDefinition>
                    <nciodm:PreferredTerm>C-C Chemokine Receptor Type 5 Measurement</nciodm:PreferredTerm>
                </EnumeratedItem>
                <EnumeratedItem CodedValue="CD1" nciodm:ExtCodeID="C103364">
                    <nciodm:CDISCSynonym>CD1</nciodm:CDISCSynonym>
                    <nciodm:CDISCDefinition>A count of the CD1 expressing cells per unit of a biological specimen.</nciodm:CDISCDefinition>
                    <nciodm:PreferredTerm>CD1 Expressing Cell Measurement</nciodm:PreferredTerm>
                </EnumeratedItem>
                <EnumeratedItem CodedValue="CD10" nciodm:ExtCodeID="C111146">
                    <nciodm:CDISCSynonym>CD10</nciodm:CDISCSynonym>
                    <nciodm:CDISCDefinition>A measurement of the CD10 expressing cells per unit in a biological specimen.</nciodm:CDISCDefinition>
                    <nciodm:PreferredTerm>CD10 Expressing Cell Count</nciodm:PreferredTerm>
                </EnumeratedItem>
                <EnumeratedItem CodedValue="CD11A" nciodm:ExtCodeID="C105439">
                    <nciodm:CDISCSynonym>CD11A</nciodm:CDISCSynonym>
                    <nciodm:CDISCSynonym>CD11a</nciodm:CDISCSynonym>
                    <nciodm:CDISCDefinition>A count of the CD11a expressing cells per unit of a biological specimen.</nciodm:CDISCDefinition>
                    <nciodm:PreferredTerm>CD11A Expressing Cell Count</nciodm:PreferredTerm>
                </EnumeratedItem>
                <EnumeratedItem CodedValue="CD11B" nciodm:ExtCodeID="C105440">
                    <nciodm:CDISCSynonym>CD11B</nciodm:CDISCSynonym>
                    <nciodm:CDISCSynonym>CD11b</nciodm:CDISCSynonym>
                    <nciodm:CDISCSynonym>Complement Component 3 Receptor 3 Subunit</nciodm:CDISCSynonym>
                    <nciodm:CDISCSynonym>Complement Receptor Type 3 Alpha Subunit</nciodm:CDISCSynonym>
                    <nciodm:CDISCSynonym>ITGAM Protein</nciodm:CDISCSynonym>
                    <nciodm:CDISCSynonym>Integrin Alpha-M</nciodm:CDISCSynonym>
                    <nciodm:CDISCDefinition>A count of the CD11b expressing cells per unit of a biological specimen.</nciodm:CDISCDefinition>
                    <nciodm:PreferredTerm>CD11B Expressing Cell Count</nciodm:PreferredTerm>
                </EnumeratedItem>
                <EnumeratedItem CodedValue="CD13" nciodm:ExtCodeID="C111147">
                    <nciodm:CDISCSynonym>CD13</nciodm:CDISCSynonym>
                    <nciodm:CDISCDefinition>A measurement of the CD13 expressing cells per unit in a biological specimen.</nciodm:CDISCDefinition>
                    <nciodm:PreferredTerm>CD13 Expressing Cell Count</nciodm:PreferredTerm>
                </EnumeratedItem>
                <EnumeratedItem CodedValue="CD14" nciodm:ExtCodeID="C103365">
                    <nciodm:CDISCSynonym>CD14</nciodm:CDISCSynonym>
                    <nciodm:CDISCDefinition>A count of the CD14 expressing cells per unit of a biological specimen.</nciodm:CDISCDefinition>
                    <nciodm:PreferredTerm>CD14 Expressing Cell Measurement</nciodm:PreferredTerm>
                </EnumeratedItem>
                <EnumeratedItem CodedValue="CD161ALY" nciodm:ExtCodeID="C122104">
                    <nciodm:CDISCSynonym>CD161a/Lymphocytes</nciodm:CDISCSynonym>
                    <nciodm:CDISCDefinition>A relative measurement (ratio or percentage) of CD161a expressing cells to all lymphocytes in a biological specimen.</nciodm:CDISCDefinition>
                    <nciodm:PreferredTerm>CD161a to Lymphocyte Ratio Measurement</nciodm:PreferredTerm>
                </EnumeratedItem>
                <EnumeratedItem CodedValue="CD161LY" nciodm:ExtCodeID="C122105">
                    <nciodm:CDISCSynonym>CD161/Lymphocytes</nciodm:CDISCSynonym>
                    <nciodm:CDISCDefinition>A relative measurement (ratio or percentage) of CD161 expressing cells to all lymphocytes in a biological specimen.</nciodm:CDISCDefinition>
                    <nciodm:PreferredTerm>CD161 to Lymphocyte Ratio Measurement</nciodm:PreferredTerm>
                </EnumeratedItem>
                <EnumeratedItem CodedValue="CD19" nciodm:ExtCodeID="C103808">
                    <nciodm:CDISCSynonym>CD19</nciodm:CDISCSynonym>
                    <nciodm:CDISCDefinition>A count of the CD19 expressing cells per unit in a biological specimen.</nciodm:CDISCDefinition>
                    <nciodm:PreferredTerm>CD19 Expressing Cell Count</nciodm:PreferredTerm>
                </EnumeratedItem>
                <EnumeratedItem CodedValue="CD19LY" nciodm:ExtCodeID="C103812">
                    <nciodm:CDISCSynonym>CD19/Lymphocytes</nciodm:CDISCSynonym>
                    <nciodm:CDISCDefinition>A relative measurement (ratio or percentage) of CD19 expressing cells to all lymphocytes in a biological specimen.</nciodm:CDISCDefinition>
                    <nciodm:PreferredTerm>CD19 Cell to Lymphocyte Ratio Measurement</nciodm:PreferredTerm>
                </EnumeratedItem>
                <EnumeratedItem CodedValue="CD2" nciodm:ExtCodeID="C103366">
                    <nciodm:CDISCSynonym>CD2</nciodm:CDISCSynonym>
                    <nciodm:CDISCDefinition>A count of the CD2 expressing cells per unit of a biological specimen.</nciodm:CDISCDefinition>
                    <nciodm:PreferredTerm>CD2 Expressing Cell Measurement</nciodm:PreferredTerm>
                </EnumeratedItem>
                <EnumeratedItem CodedValue="CD20" nciodm:ExtCodeID="C103368">
                    <nciodm:CDISCSynonym>CD20</nciodm:CDISCSynonym>
                    <nciodm:CDISCDefinition>A count of the CD20 expressing cells per unit of a biological specimen.</nciodm:CDISCDefinition>
                    <nciodm:PreferredTerm>CD20 Expressing Cell Measurement</nciodm:PreferredTerm>
                </EnumeratedItem>
                <EnumeratedItem CodedValue="CD22" nciodm:ExtCodeID="C111148">
                    <nciodm:CDISCSynonym>CD22</nciodm:CDISCSynonym>
                    <nciodm:CDISCDefinition>A measurement of the CD22 expressing cells per unit in a biological specimen.</nciodm:CDISCDefinition>
                    <nciodm:PreferredTerm>CD22 Expressing Cell Count</nciodm:PreferredTerm>
                </EnumeratedItem>
                <EnumeratedItem CodedValue="CD23" nciodm:ExtCodeID="C111149">
                    <nciodm:CDISCSynonym>CD23</nciodm:CDISCSynonym>
                    <nciodm:CDISCDefinition>A measurement of the CD23 expressing cells per unit in a biological specimen.</nciodm:CDISCDefinition>
                    <nciodm:PreferredTerm>CD23 Expressing Cell Count</nciodm:PreferredTerm>
                </EnumeratedItem>
                <EnumeratedItem CodedValue="CD2LY" nciodm:ExtCodeID="C103367">
                    <nciodm:CDISCSynonym>CD2/Lymphocytes</nciodm:CDISCSynonym>
                    <nciodm:CDISCDefinition>A relative measurement (ratio or percentage) of CD2 expressing cells to all lymphocytes in a biological specimen.</nciodm:CDISCDefinition>
                    <nciodm:PreferredTerm>CD2 Expressing Cell to Lymphocyte Ratio Measurement</nciodm:PreferredTerm>
                </EnumeratedItem>
                <EnumeratedItem CodedValue="CD3" nciodm:ExtCodeID="C103809">
                    <nciodm:CDISCSynonym>CD3</nciodm:CDISCSynonym>
                    <nciodm:CDISCDefinition>A count of the CD3 expressing cells per unit in a biological specimen.</nciodm:CDISCDefinition>
                    <nciodm:PreferredTerm>CD3 Expressing Cell Count</nciodm:PreferredTerm>
                </EnumeratedItem>
                <EnumeratedItem CodedValue="CD33" nciodm:ExtCodeID="C111150">
                    <nciodm:CDISCSynonym>CD33</nciodm:CDISCSynonym>
                    <nciodm:CDISCDefinition>A measurement of the CD33 expressing cells per unit in a biological specimen.</nciodm:CDISCDefinition>
                    <nciodm:PreferredTerm>CD33 Expressing Cell Count</nciodm:PreferredTerm>
                </EnumeratedItem>
                <EnumeratedItem CodedValue="CD34" nciodm:ExtCodeID="C102260">
                    <nciodm:CDISCSynonym>CD34</nciodm:CDISCSynonym>
                    <nciodm:CDISCDefinition>A measurement of the CD34 expressing cells per unit in a biological specimen.</nciodm:CDISCDefinition>
                    <nciodm:PreferredTerm>CD34 Measurement</nciodm:PreferredTerm>
                </EnumeratedItem>
                <EnumeratedItem CodedValue="CD38" nciodm:ExtCodeID="C111151">
                    <nciodm:CDISCSynonym>CD38</nciodm:CDISCSynonym>
                    <nciodm:CDISCDefinition>A measurement of the CD38 expressing cells per unit in a biological specimen.</nciodm:CDISCDefinition>
                    <nciodm:PreferredTerm>CD38 Expressing Cell Count</nciodm:PreferredTerm>
                </EnumeratedItem>
                <EnumeratedItem CodedValue="CD3LY" nciodm:ExtCodeID="C103813">
                    <nciodm:CDISCSynonym>CD3/Lymphocytes</nciodm:CDISCSynonym>
                    <nciodm:CDISCDefinition>A relative measurement (ratio or percentage) of CD3 expressing cells to all lymphocytes in a biological specimen.</nciodm:CDISCDefinition>
                    <nciodm:PreferredTerm>CD3 Cell to Lymphocyte Ratio Measurement</nciodm:PreferredTerm>
                </EnumeratedItem>
                <EnumeratedItem CodedValue="CD4" nciodm:ExtCodeID="C103810">
                    <nciodm:CDISCSynonym>CD4</nciodm:CDISCSynonym>
                    <nciodm:CDISCDefinition>A count of the CD4 expressing cells per unit in a biological specimen.</nciodm:CDISCDefinition>
                    <nciodm:PreferredTerm>CD4 Expressing Cell Count</nciodm:PreferredTerm>
                </EnumeratedItem>
                <EnumeratedItem CodedValue="CD40" nciodm:ExtCodeID="C82006">
                    <nciodm:CDISCSynonym>CD40</nciodm:CDISCSynonym>
                    <nciodm:CDISCDefinition>A count of the CD40 cells per unit in a biological specimen.</nciodm:CDISCDefinition>
                    <nciodm:PreferredTerm>CD40 Measurement</nciodm:PreferredTerm>
                </EnumeratedItem>
                <EnumeratedItem CodedValue="CD40L" nciodm:ExtCodeID="C82007">
                    <nciodm:CDISCSynonym>CD40 Ligand</nciodm:CDISCSynonym>
                    <nciodm:CDISCDefinition>A count of the CD40 ligand cells per unit in a biological specimen.</nciodm:CDISCDefinition>
                    <nciodm:PreferredTerm>CD40 Ligand Measurement</nciodm:PreferredTerm>
                </EnumeratedItem>
                <EnumeratedItem CodedValue="CD45LY" nciodm:ExtCodeID="C122106">
                    <nciodm:CDISCSynonym>CD45/Lymphocytes</nciodm:CDISCSynonym>
                    <nciodm:CDISCDefinition>A relative measurement (ratio or percentage) of CD45 expressing cells to all lymphocytes in a biological specimen.</nciodm:CDISCDefinition>
                    <nciodm:PreferredTerm>CD45 to Lymphocyte Ratio Measurement</nciodm:PreferredTerm>
                </EnumeratedItem>
                <EnumeratedItem CodedValue="CD45RALY" nciodm:ExtCodeID="C122107">
                    <nciodm:CDISCSynonym>CD45RA/Lymphocytes</nciodm:CDISCSynonym>
                    <nciodm:CDISCDefinition>A relative measurement (ratio or percentage) of CD45RA expressing cells to all lymphocytes in a biological specimen.</nciodm:CDISCDefinition>
                    <nciodm:PreferredTerm>CD45RA to Lymphocyte Ratio Measurement</nciodm:PreferredTerm>
                </EnumeratedItem>
                <EnumeratedItem CodedValue="CD4CD8" nciodm:ExtCodeID="C103814">
                    <nciodm:CDISCSynonym>CD4/CD8</nciodm:CDISCSynonym>
                    <nciodm:CDISCDefinition>A relative measurement (ratio or percentage) of CD4 expressing cells to the CD8 expressing cells in a biological specimen.</nciodm:CDISCDefinition>
                    <nciodm:PreferredTerm>CD4 Cell to CD8 Cell Ratio Measurement</nciodm:PreferredTerm>
                </EnumeratedItem>
                <EnumeratedItem CodedValue="CD4LY" nciodm:ExtCodeID="C103815">
                    <nciodm:CDISCSynonym>CD4/Lymphocytes</nciodm:CDISCSynonym>
                    <nciodm:CDISCDefinition>A relative measurement (ratio or percentage) of CD4 expressing cells to all lymphocytes in a biological specimen.</nciodm:CDISCDefinition>
                    <nciodm:PreferredTerm>CD4 Cell to Lymphocyte Ratio Measurement</nciodm:PreferredTerm>
                </EnumeratedItem>
                <EnumeratedItem CodedValue="CD5" nciodm:ExtCodeID="C103369">
                    <nciodm:CDISCSynonym>CD5</nciodm:CDISCSynonym>
                    <nciodm:CDISCDefinition>A count of the CD5 expressing cells per unit of a biological specimen.</nciodm:CDISCDefinition>
                    <nciodm:PreferredTerm>CD5 Expressing Cell Measurement</nciodm:PreferredTerm>
                </EnumeratedItem>
                <EnumeratedItem CodedValue="CD56" nciodm:ExtCodeID="C103370">
                    <nciodm:CDISCSynonym>CD56</nciodm:CDISCSynonym>
                    <nciodm:CDISCDefinition>A count of the CD56 expressing cells per unit of a biological specimen.</nciodm:CDISCDefinition>
                    <nciodm:PreferredTerm>CD56 Expressing Cell Measurement</nciodm:PreferredTerm>
                </EnumeratedItem>
                <EnumeratedItem CodedValue="CD79A" nciodm:ExtCodeID="C111152">
                    <nciodm:CDISCSynonym>CD79A</nciodm:CDISCSynonym>
                    <nciodm:CDISCDefinition>A measurement of the CD79A expressing cells per unit in a biological specimen.</nciodm:CDISCDefinition>
                    <nciodm:PreferredTerm>CD79A Expressing Cell Count</nciodm:PreferredTerm>
                </EnumeratedItem>
                <EnumeratedItem CodedValue="CD8" nciodm:ExtCodeID="C103811">
                    <nciodm:CDISCSynonym>CD8</nciodm:CDISCSynonym>
                    <nciodm:CDISCDefinition>A count of the CD8 expressing cells per unit in a biological specimen.</nciodm:CDISCDefinition>
                    <nciodm:PreferredTerm>CD8 Expressing Cell Count</nciodm:PreferredTerm>
                </EnumeratedItem>
                <EnumeratedItem CodedValue="CD8LY" nciodm:ExtCodeID="C103816">
                    <nciodm:CDISCSynonym>CD8/Lymphocytes</nciodm:CDISCSynonym>
                    <nciodm:CDISCDefinition>A relative measurement (ratio or percentage) of CD8 expressing cells to all lymphocytes in a biological specimen.</nciodm:CDISCDefinition>
                    <nciodm:PreferredTerm>CD8 Cell to Lymphocyte Ratio Measurement</nciodm:PreferredTerm>
                </EnumeratedItem>
                <EnumeratedItem CodedValue="CDFTXN" nciodm:ExtCodeID="C103381">
                    <nciodm:CDISCSynonym>Clostridium difficile Toxin</nciodm:CDISCSynonym>
                    <nciodm:CDISCDefinition>A measurement of the Clostridium difficile toxin in a biological specimen.</nciodm:CDISCDefinition>
                    <nciodm:PreferredTerm>Clostridium difficile Toxin Measurement</nciodm:PreferredTerm>
                </EnumeratedItem>
                <EnumeratedItem CodedValue="CDT" nciodm:ExtCodeID="C101016">
                    <nciodm:CDISCSynonym>Carbohydrate-Deficient Transferrin</nciodm:CDISCSynonym>
                    <nciodm:CDISCDefinition>A measurement of transferrin with a reduced number of carbohydrate moieties in a biological specimen.</nciodm:CDISCDefinition>
                    <nciodm:PreferredTerm>Carbohydrate-Deficient Transferrin Measurement</nciodm:PreferredTerm>
                </EnumeratedItem>
                <EnumeratedItem CodedValue="CDTTFRN" nciodm:ExtCodeID="C125943">
                    <nciodm:CDISCSynonym>Carb-Deficient Transferrin/Transferrin</nciodm:CDISCSynonym>
                    <nciodm:CDISCDefinition>A relative measurement (ratio or percentage) of the carbohydrate-deficient transferrin to total transferrin in a biological specimen.</nciodm:CDISCDefinition>
                    <nciodm:PreferredTerm>Carbohydrate-Deficient Transferrin to Transferrin Ratio Measurement</nciodm:PreferredTerm>
                </EnumeratedItem>
                <EnumeratedItem CodedValue="CEA" nciodm:ExtCodeID="C81983">
                    <nciodm:CDISCSynonym>Carcinoembryonic Antigen</nciodm:CDISCSynonym>
                    <nciodm:CDISCDefinition>A measurement of the carcinoembryonic antigen in a biological specimen.</nciodm:CDISCDefinition>
                    <nciodm:PreferredTerm>Carcinoembryonic Antigen Measurement</nciodm:PreferredTerm>
                </EnumeratedItem>
                <EnumeratedItem CodedValue="CEC" nciodm:ExtCodeID="C96592">
                    <nciodm:CDISCSynonym>Circulating Endothelial Cells</nciodm:CDISCSynonym>
                    <nciodm:CDISCDefinition>A measurement of the circulating endothelial cells in a biological specimen.</nciodm:CDISCDefinition>
                    <nciodm:PreferredTerm>Circulating Endothelial Cell Count</nciodm:PreferredTerm>
                </EnumeratedItem>
                <EnumeratedItem CodedValue="CEIMCE" nciodm:ExtCodeID="C111234">
                    <nciodm:CDISCSynonym>Immature Cells/Total Cells</nciodm:CDISCSynonym>
                    <nciodm:CDISCDefinition>A relative measurement (ratio or percentage) of the immature hematopoietic cells to total cells in a biological specimen.</nciodm:CDISCDefinition>
                    <nciodm:PreferredTerm>Immature Cell to Total Cell Ratio Measurement</nciodm:PreferredTerm>
                </EnumeratedItem>
                <EnumeratedItem CodedValue="CELLSIM" nciodm:ExtCodeID="C96672">
                    <nciodm:CDISCSynonym>Immature Cells</nciodm:CDISCSynonym>
                    <nciodm:CDISCDefinition>A measurement of the total immature cells in a blood specimen.</nciodm:CDISCDefinition>
                    <nciodm:PreferredTerm>Immature Cell Count</nciodm:PreferredTerm>
                </EnumeratedItem>
                <EnumeratedItem CodedValue="CELLULAR" nciodm:ExtCodeID="C111153">
                    <nciodm:CDISCSynonym>Cellularity</nciodm:CDISCSynonym>
                    <nciodm:CDISCSynonym>Cellularity Grade</nciodm:CDISCSynonym>
                    <nciodm:CDISCDefinition>A measurement of the degree, quality or condition of cells in a biological specimen.</nciodm:CDISCDefinition>
                    <nciodm:PreferredTerm>Cellularity Measurement</nciodm:PreferredTerm>
                </EnumeratedItem>
                <EnumeratedItem CodedValue="CENTROAB" nciodm:ExtCodeID="C111154">
                    <nciodm:CDISCSynonym>Anti-Centromere B Antibodies</nciodm:CDISCSynonym>
                    <nciodm:CDISCDefinition>A measurement of centromere B antibodies in a biological specimen.</nciodm:CDISCDefinition>
                    <nciodm:PreferredTerm>Centromere B Antibody Measurement</nciodm:PreferredTerm>
                </EnumeratedItem>
                <EnumeratedItem CodedValue="CETP" nciodm:ExtCodeID="C120632">
                    <nciodm:CDISCSynonym>Cholesteryl Ester Transfer Protein</nciodm:CDISCSynonym>
                    <nciodm:CDISCDefinition>A measurement of the cholesteryl ester transfer protein in a biological specimen.</nciodm:CDISCDefinition>
                    <nciodm:PreferredTerm>Cholesteryl Ester Transfer Protein Measurement</nciodm:PreferredTerm>
                </EnumeratedItem>
                <EnumeratedItem CodedValue="CETPA" nciodm:ExtCodeID="C103380">
                    <nciodm:CDISCSynonym>Cholesteryl Ester Transfer Protein Act</nciodm:CDISCSynonym>
                    <nciodm:CDISCDefinition>A measurement of the biological activity of cholesteryl ester transfer protein in a biological specimen.</nciodm:CDISCDefinition>
                    <nciodm:PreferredTerm>Cholesteryl Ester Transfer Protein Activity Measurement</nciodm:PreferredTerm>
                </EnumeratedItem>
                <EnumeratedItem CodedValue="CGA" nciodm:ExtCodeID="C122108">
                    <nciodm:CDISCSynonym>Chromogranin A</nciodm:CDISCSynonym>
                    <nciodm:CDISCDefinition>A measurement of the chromogranin A in a biological specimen.</nciodm:CDISCDefinition>
                    <nciodm:PreferredTerm>Chromogranin A Measurement</nciodm:PreferredTerm>
                </EnumeratedItem>
                <EnumeratedItem CodedValue="CGMP" nciodm:ExtCodeID="C111165">
                    <nciodm:CDISCSynonym>Cyclic Guanosine 3,5-Monophosphate</nciodm:CDISCSynonym>
                    <nciodm:CDISCDefinition>A measurement of the cyclic guanosine 3,5-monophosphate in a biological specimen.</nciodm:CDISCDefinition>
                    <nciodm:PreferredTerm>Cyclic Guanosine Monophosphate Measurement</nciodm:PreferredTerm>
                </EnumeratedItem>
                <EnumeratedItem CodedValue="CH50" nciodm:ExtCodeID="C100423">
                    <nciodm:CDISCSynonym>CH50</nciodm:CDISCSynonym>
                    <nciodm:CDISCSynonym>Complement CH50</nciodm:CDISCSynonym>
                    <nciodm:CDISCSynonym>Total Hemolytic Complement</nciodm:CDISCSynonym>
                    <nciodm:CDISCDefinition>A measurement of the complement required to lyse 50 percent of red blood cells in a biological specimen.</nciodm:CDISCDefinition>
                    <nciodm:PreferredTerm>CH50 Measurement</nciodm:PreferredTerm>
                </EnumeratedItem>
                <EnumeratedItem CodedValue="CHLMCRN" nciodm:ExtCodeID="C120633">
                    <nciodm:CDISCSynonym>Chylomicrons</nciodm:CDISCSynonym>
                    <nciodm:CDISCDefinition>A measurement of the chylomicrons in a biological specimen.</nciodm:CDISCDefinition>
                    <nciodm:PreferredTerm>Chylomicrons Measurement</nciodm:PreferredTerm>
                </EnumeratedItem>
                <EnumeratedItem CodedValue="CHOL" nciodm:ExtCodeID="C105586">
                    <nciodm:CDISCSynonym>Cholesterol</nciodm:CDISCSynonym>
                    <nciodm:CDISCSynonym>Total Cholesterol</nciodm:CDISCSynonym>
                    <nciodm:CDISCDefinition>A measurement of the cholesterol in a biological specimen.</nciodm:CDISCDefinition>
                    <nciodm:PreferredTerm>Cholesterol Measurement</nciodm:PreferredTerm>
                </EnumeratedItem>
                <EnumeratedItem CodedValue="CHOLHDL" nciodm:ExtCodeID="C80171">
                    <nciodm:CDISCSynonym>Cholesterol/HDL-Cholesterol</nciodm:CDISCSynonym>
                    <nciodm:CDISCDefinition>A relative measurement (ratio or percentage) of total cholesterol to high-density lipoprotein cholesterol (HDL-C) in a biological specimen.</nciodm:CDISCDefinition>
                    <nciodm:PreferredTerm>Cholesterol to HDL-Cholesterol Ratio Measurement</nciodm:PreferredTerm>
                </EnumeratedItem>
                <EnumeratedItem CodedValue="CHOLINES" nciodm:ExtCodeID="C92289">
                    <nciodm:CDISCSynonym>Cholinesterase</nciodm:CDISCSynonym>
                    <nciodm:CDISCDefinition>A measurement of the cholinesterase in a biological specimen.</nciodm:CDISCDefinition>
                    <nciodm:PreferredTerm>Cholinesterase Measurement</nciodm:PreferredTerm>
                </EnumeratedItem>
                <EnumeratedItem CodedValue="CHYTRYP" nciodm:ExtCodeID="C111159">
                    <nciodm:CDISCSynonym>Chymotrypsin</nciodm:CDISCSynonym>
                    <nciodm:CDISCDefinition>A measurement of the total chymotrypsin in a biological specimen.</nciodm:CDISCDefinition>
                    <nciodm:PreferredTerm>Chymotrypsin Measurement</nciodm:PreferredTerm>
                </EnumeratedItem>
                <EnumeratedItem CodedValue="CIT" nciodm:ExtCodeID="C122109">
                    <nciodm:CDISCSynonym>Citrulline</nciodm:CDISCSynonym>
                    <nciodm:CDISCDefinition>A measurement of the citrulline in a biological specimen.</nciodm:CDISCDefinition>
                    <nciodm:PreferredTerm>Citrulline Measurement</nciodm:PreferredTerm>
                </EnumeratedItem>
                <EnumeratedItem CodedValue="CITCREAT" nciodm:ExtCodeID="C122110">
                    <nciodm:CDISCSynonym>Citrate/Creatinine</nciodm:CDISCSynonym>
                    <nciodm:CDISCSynonym>Citric Acid/Creatinine</nciodm:CDISCSynonym>
                    <nciodm:CDISCDefinition>A relative measurement (ratio or percentage) of the citrate to creatinine in a biological specimen.</nciodm:CDISCDefinition>
                    <nciodm:PreferredTerm>Citrate to Creatinine Ratio Measurement</nciodm:PreferredTerm>
                </EnumeratedItem>
                <EnumeratedItem CodedValue="CITRATE" nciodm:ExtCodeID="C92248">
                    <nciodm:CDISCSynonym>Citrate</nciodm:CDISCSynonym>
                    <nciodm:CDISCSynonym>Citric Acid</nciodm:CDISCSynonym>
                    <nciodm:CDISCDefinition>A measurement of the citrate in a biological specimen.</nciodm:CDISCDefinition>
                    <nciodm:PreferredTerm>Citrate Measurement</nciodm:PreferredTerm>
                </EnumeratedItem>
                <EnumeratedItem CodedValue="CK" nciodm:ExtCodeID="C64489">
                    <nciodm:CDISCSynonym>CPK</nciodm:CDISCSynonym>
                    <nciodm:CDISCSynonym>Creatine Kinase</nciodm:CDISCSynonym>
                    <nciodm:CDISCDefinition>A measurement of the total creatine kinase in a biological specimen.</nciodm:CDISCDefinition>
                    <nciodm:PreferredTerm>Creatine Kinase Measurement</nciodm:PreferredTerm>
                </EnumeratedItem>
                <EnumeratedItem CodedValue="CKBB" nciodm:ExtCodeID="C64490">
                    <nciodm:CDISCSynonym>Creatine Kinase BB</nciodm:CDISCSynonym>
                    <nciodm:CDISCDefinition>A measurement of the homozygous B-type creatine kinase in a biological specimen.</nciodm:CDISCDefinition>
                    <nciodm:PreferredTerm>Creatine Kinase BB Measurement</nciodm:PreferredTerm>
                </EnumeratedItem>
                <EnumeratedItem CodedValue="CKBBCK" nciodm:ExtCodeID="C79466">
                    <nciodm:CDISCSynonym>Creatine Kinase BB/Total Creatine Kinase</nciodm:CDISCSynonym>
                    <nciodm:CDISCDefinition>A relative measurement (ratio or percentage) of the BB-type creatine kinase to total creatine kinase in a biological specimen.</nciodm:CDISCDefinition>
                    <nciodm:PreferredTerm>Creatine Kinase BB to Total Creatine Kinase Ratio Measurement</nciodm:PreferredTerm>
                </EnumeratedItem>
                <EnumeratedItem CodedValue="CKMB" nciodm:ExtCodeID="C64491">
                    <nciodm:CDISCSynonym>Creatine Kinase MB</nciodm:CDISCSynonym>
                    <nciodm:CDISCDefinition>A measurement of the heterozygous MB-type creatine kinase in a biological specimen.</nciodm:CDISCDefinition>
                    <nciodm:PreferredTerm>Creatine Kinase MB Measurement</nciodm:PreferredTerm>
                </EnumeratedItem>
                <EnumeratedItem CodedValue="CKMBCK" nciodm:ExtCodeID="C79441">
                    <nciodm:CDISCSynonym>Creatine Kinase MB/Total Creatine Kinase</nciodm:CDISCSynonym>
                    <nciodm:CDISCDefinition>A relative measurement (ratio or percentage) of the MB-type creatine kinase to total creatine kinase in a biological specimen.</nciodm:CDISCDefinition>
                    <nciodm:PreferredTerm>Creatine Kinase MB to Total Creatine Kinase Ratio Measurement</nciodm:PreferredTerm>
                </EnumeratedItem>
                <EnumeratedItem CodedValue="CKMM" nciodm:ExtCodeID="C64494">
                    <nciodm:CDISCSynonym>Creatine Kinase MM</nciodm:CDISCSynonym>
                    <nciodm:CDISCDefinition>A measurement of the homozygous M-type creatine kinase in a biological specimen.</nciodm:CDISCDefinition>
                    <nciodm:PreferredTerm>Creatine Kinase MM Measurement</nciodm:PreferredTerm>
                </EnumeratedItem>
                <EnumeratedItem CodedValue="CKMMCK" nciodm:ExtCodeID="C79442">
                    <nciodm:CDISCSynonym>Creatine Kinase MM/Total Creatine Kinase</nciodm:CDISCSynonym>
                    <nciodm:CDISCDefinition>A relative measurement (ratio or percentage) of the MM-type creatine kinase to total creatine kinase in a biological specimen.</nciodm:CDISCDefinition>
                    <nciodm:PreferredTerm>Creatine Kinase MM to Total Creatine Kinase Ratio Measurement</nciodm:PreferredTerm>
                </EnumeratedItem>
                <EnumeratedItem CodedValue="CL" nciodm:ExtCodeID="C64495">
                    <nciodm:CDISCSynonym>Chloride</nciodm:CDISCSynonym>
                    <nciodm:CDISCDefinition>A measurement of the chloride in a biological specimen.</nciodm:CDISCDefinition>
                    <nciodm:PreferredTerm>Chloride Measurement</nciodm:PreferredTerm>
                </EnumeratedItem>
                <EnumeratedItem CodedValue="CLARITY" nciodm:ExtCodeID="C96594">
                    <nciodm:CDISCSynonym>Clarity</nciodm:CDISCSynonym>
                    <nciodm:CDISCDefinition>A measurement of the transparency of a biological specimen.</nciodm:CDISCDefinition>
                    <nciodm:PreferredTerm>Clarity Measurement</nciodm:PreferredTerm>
                </EnumeratedItem>
                <EnumeratedItem CodedValue="CLCLR" nciodm:ExtCodeID="C106509">
                    <nciodm:CDISCSynonym>Chloride Clearance</nciodm:CDISCSynonym>
                    <nciodm:CDISCDefinition>A measurement of the volume of serum or plasma that would be cleared of chloride by excretion of urine for a specified unit of time (e.g. one minute).</nciodm:CDISCDefinition>
                    <nciodm:PreferredTerm>Chloride Clearance Measurement</nciodm:PreferredTerm>
                </EnumeratedItem>
                <EnumeratedItem CodedValue="CLCREAT" nciodm:ExtCodeID="C79440">
                    <nciodm:CDISCSynonym>Chloride/Creatinine</nciodm:CDISCSynonym>
                    <nciodm:CDISCDefinition>A relative measurement (ratio or percentage) of the chloride to creatinine in a biological specimen.</nciodm:CDISCDefinition>
                    <nciodm:PreferredTerm>Chloride to Creatinine Ratio Measurement</nciodm:PreferredTerm>
                </EnumeratedItem>
                <EnumeratedItem CodedValue="CLCTONN" nciodm:ExtCodeID="C74848">
                    <nciodm:CDISCSynonym>Calcitonin</nciodm:CDISCSynonym>
                    <nciodm:CDISCDefinition>A measurement of the calcitonin hormone in a biological specimen.</nciodm:CDISCDefinition>
                    <nciodm:PreferredTerm>Calcitonin Measurement</nciodm:PreferredTerm>
                </EnumeratedItem>
                <EnumeratedItem CodedValue="CLCTRIOL" nciodm:ExtCodeID="C74849">
                    <nciodm:CDISCSynonym>Calcitriol</nciodm:CDISCSynonym>
                    <nciodm:CDISCDefinition>A measurement of the calcitriol hormone in a biological specimen.</nciodm:CDISCDefinition>
                    <nciodm:PreferredTerm>Calcitriol Measurement</nciodm:PreferredTerm>
                </EnumeratedItem>
                <EnumeratedItem CodedValue="CLEXR" nciodm:ExtCodeID="C117832">
                    <nciodm:CDISCSynonym>Chloride Excretion Rate</nciodm:CDISCSynonym>
                    <nciodm:CDISCDefinition>A measurement of the amount of chloride being excreted in urine over a defined period of time (e.g. one hour).</nciodm:CDISCDefinition>
                    <nciodm:PreferredTerm>Chloride Urine Excretion Rate</nciodm:PreferredTerm>
                </EnumeratedItem>
                <EnumeratedItem CodedValue="CLUECE" nciodm:ExtCodeID="C102261">
                    <nciodm:CDISCSynonym>Clue Cells</nciodm:CDISCSynonym>
                    <nciodm:CDISCDefinition>A measurement of the clue cells in a biological specimen.</nciodm:CDISCDefinition>
                    <nciodm:PreferredTerm>Clue Cell Count</nciodm:PreferredTerm>
                </EnumeratedItem>
                <EnumeratedItem CodedValue="CMVIGGAB" nciodm:ExtCodeID="C96596">
                    <nciodm:CDISCSynonym>Cytomegalovirus IgG Antibody</nciodm:CDISCSynonym>
                    <nciodm:CDISCDefinition>A measurement of the cytomegalovirus IgG antibody in a biological specimen.</nciodm:CDISCDefinition>
                    <nciodm:PreferredTerm>Cytomegalovirus IgG Antibody Measurement</nciodm:PreferredTerm>
                </EnumeratedItem>
                <EnumeratedItem CodedValue="CMVIGMAB" nciodm:ExtCodeID="C96597">
                    <nciodm:CDISCSynonym>Cytomegalovirus IgM Antibody</nciodm:CDISCSynonym>
                    <nciodm:CDISCDefinition>A measurement of the cytomegalovirus IgM antibody in a biological specimen.</nciodm:CDISCDefinition>
                    <nciodm:PreferredTerm>Cytomegalovirus IgM Antibody Measurement</nciodm:PreferredTerm>
                </EnumeratedItem>
                <EnumeratedItem CodedValue="CMVVLD" nciodm:ExtCodeID="C98716">
                    <nciodm:CDISCSynonym>CMV Viral Load</nciodm:CDISCSynonym>
                    <nciodm:CDISCDefinition>A measurement of the cytomegalovirus viral load in a biological specimen.</nciodm:CDISCDefinition>
                    <nciodm:PreferredTerm>Cytomegalovirus Viral Load Measurement</nciodm:PreferredTerm>
                </EnumeratedItem>
                <EnumeratedItem CodedValue="CNTIGGAB" nciodm:ExtCodeID="C122111">
                    <nciodm:CDISCSynonym>Centromere IgG Antibody</nciodm:CDISCSynonym>
                    <nciodm:CDISCSynonym>Centromere Protein B</nciodm:CDISCSynonym>
                    <nciodm:CDISCDefinition>A measurement of the centromere IgG antibody in a biological specimen.</nciodm:CDISCDefinition>
                    <nciodm:PreferredTerm>Centromere IgG Antibody Measurement</nciodm:PreferredTerm>
                </EnumeratedItem>
                <EnumeratedItem CodedValue="CO2" nciodm:ExtCodeID="C64545">
                    <nciodm:CDISCSynonym>Carbon Dioxide</nciodm:CDISCSynonym>
                    <nciodm:CDISCDefinition>A measurement of the carbon dioxide gas in a biological specimen.</nciodm:CDISCDefinition>
                    <nciodm:PreferredTerm>Carbon Dioxide Measurement</nciodm:PreferredTerm>
                </EnumeratedItem>
                <EnumeratedItem CodedValue="COAGIDX" nciodm:ExtCodeID="C112239">
                    <nciodm:CDISCSynonym>CI</nciodm:CDISCSynonym>
                    <nciodm:CDISCSynonym>Coagulation Index</nciodm:CDISCSynonym>
                    <nciodm:CDISCDefinition>A measurement of the efficiency of coagulation of a biological specimen. This is calculated by a mathematical formula that takes into account the R value, K value, angle and maximum amplitude of clot formation.</nciodm:CDISCDefinition>
                    <nciodm:PreferredTerm>Coagulation Index Measurement</nciodm:PreferredTerm>
                </EnumeratedItem>
                <EnumeratedItem CodedValue="COCAINE" nciodm:ExtCodeID="C74690">
                    <nciodm:CDISCSynonym>Cocaine</nciodm:CDISCSynonym>
                    <nciodm:CDISCDefinition>A measurement of the cocaine present in a biological specimen.</nciodm:CDISCDefinition>
                    <nciodm:PreferredTerm>Cocaine Measurement</nciodm:PreferredTerm>
                </EnumeratedItem>
                <EnumeratedItem CodedValue="COCCAB" nciodm:ExtCodeID="C111160">
                    <nciodm:CDISCSynonym>Coccidioides Antibody</nciodm:CDISCSynonym>
                    <nciodm:CDISCDefinition>A measurement of the coccidioides antibody in a biological specimen.</nciodm:CDISCDefinition>
                    <nciodm:PreferredTerm>Coccidioides Antibody Measurement</nciodm:PreferredTerm>
                </EnumeratedItem>
                <EnumeratedItem CodedValue="CODEINE" nciodm:ExtCodeID="C74877">
                    <nciodm:CDISCSynonym>Codeine</nciodm:CDISCSynonym>
                    <nciodm:CDISCDefinition>A measurement of the codeine present in a biological specimen.</nciodm:CDISCDefinition>
                    <nciodm:PreferredTerm>Codeine Measurement</nciodm:PreferredTerm>
                </EnumeratedItem>
                <EnumeratedItem CodedValue="COL4" nciodm:ExtCodeID="C103383">
                    <nciodm:CDISCSynonym>Collagen Type IV</nciodm:CDISCSynonym>
                    <nciodm:CDISCDefinition>A measurement of the collagen type IV in a biological specimen.</nciodm:CDISCDefinition>
                    <nciodm:PreferredTerm>Collagen Type IV Measurement</nciodm:PreferredTerm>
                </EnumeratedItem>
                <EnumeratedItem CodedValue="COLOR" nciodm:ExtCodeID="C64546">
                    <nciodm:CDISCSynonym>Color</nciodm:CDISCSynonym>
                    <nciodm:CDISCDefinition>A measurement of the color of a biological specimen.</nciodm:CDISCDefinition>
                    <nciodm:PreferredTerm>Color Assessment</nciodm:PreferredTerm>
                </EnumeratedItem>
                <EnumeratedItem CodedValue="COMP" nciodm:ExtCodeID="C111145">
                    <nciodm:CDISCSynonym>Cartilage Oligomeric Matrix Protein</nciodm:CDISCSynonym>
                    <nciodm:CDISCDefinition>A measurement of the cartilage oligomeric matrix protein in a biological specimen.</nciodm:CDISCDefinition>
                    <nciodm:PreferredTerm>Cartilage Oligomeric Matrix Protein Measurement</nciodm:PreferredTerm>
                </EnumeratedItem>
                <EnumeratedItem CodedValue="CONDUCTU" nciodm:ExtCodeID="C102282">
                    <nciodm:CDISCSynonym>Urine Conductivity</nciodm:CDISCSynonym>
                    <nciodm:CDISCDefinition>A measurement of the urine conductivity which is a non-linear function of the electrolyte concentration in the urine.</nciodm:CDISCDefinition>
                    <nciodm:PreferredTerm>Urine Conductivity</nciodm:PreferredTerm>
                </EnumeratedItem>
                <EnumeratedItem CodedValue="COPPER" nciodm:ExtCodeID="C111161">
                    <nciodm:CDISCSynonym>Copper</nciodm:CDISCSynonym>
                    <nciodm:CDISCSynonym>Cu</nciodm:CDISCSynonym>
                    <nciodm:CDISCDefinition>A measurement of copper in a biological specimen.</nciodm:CDISCDefinition>
                    <nciodm:PreferredTerm>Copper Measurement</nciodm:PreferredTerm>
                </EnumeratedItem>
                <EnumeratedItem CodedValue="CORCREAT" nciodm:ExtCodeID="C106512">
                    <nciodm:CDISCSynonym>Cortisol/Creatinine</nciodm:CDISCSynonym>
                    <nciodm:CDISCDefinition>A relative measurement (ratio or percentage) of the cortisol to creatinine present in a sample.</nciodm:CDISCDefinition>
                    <nciodm:PreferredTerm>Cortisol to Creatinine Ratio Measurement</nciodm:PreferredTerm>
                </EnumeratedItem>
                <EnumeratedItem CodedValue="CORTFR" nciodm:ExtCodeID="C88113">
                    <nciodm:CDISCSynonym>Cortisol, Free</nciodm:CDISCSynonym>
                    <nciodm:CDISCDefinition>A measurement of the free, unbound cortisol in a biological specimen.</nciodm:CDISCDefinition>
                    <nciodm:PreferredTerm>Free Cortisol Measurement</nciodm:PreferredTerm>
                </EnumeratedItem>
                <EnumeratedItem CodedValue="CORTISOL" nciodm:ExtCodeID="C74781">
                    <nciodm:CDISCSynonym>Cortisol</nciodm:CDISCSynonym>
                    <nciodm:CDISCSynonym>Total Cortisol</nciodm:CDISCSynonym>
                    <nciodm:CDISCDefinition>A measurement of the cortisol in a biological specimen.</nciodm:CDISCDefinition>
                    <nciodm:PreferredTerm>Cortisol Measurement</nciodm:PreferredTerm>
                </EnumeratedItem>
                <EnumeratedItem CodedValue="COTININE" nciodm:ExtCodeID="C92249">
                    <nciodm:CDISCSynonym>Cotinine</nciodm:CDISCSynonym>
                    <nciodm:CDISCDefinition>A measurement of the cotinine in a biological specimen.</nciodm:CDISCDefinition>
                    <nciodm:PreferredTerm>Cotinine Measurement</nciodm:PreferredTerm>
                </EnumeratedItem>
                <EnumeratedItem CodedValue="CPEPTIDE" nciodm:ExtCodeID="C74736">
                    <nciodm:CDISCSynonym>C-peptide</nciodm:CDISCSynonym>
                    <nciodm:CDISCDefinition>A measurement of the C (connecting) peptide of insulin in a biological specimen.</nciodm:CDISCDefinition>
                    <nciodm:PreferredTerm>C-peptide Measurement</nciodm:PreferredTerm>
                </EnumeratedItem>
                <EnumeratedItem CodedValue="CPNIGAAB" nciodm:ExtCodeID="C92432">
                    <nciodm:CDISCSynonym>Chlamydia pneumoniae IgA Antibody</nciodm:CDISCSynonym>
                    <nciodm:CDISCDefinition>A measurement of the Chlamydia pneumoniae IgA antibody in a biological specimen.</nciodm:CDISCDefinition>
                    <nciodm:PreferredTerm>Chlamydia pneumoniae IgA Antibody Measurement</nciodm:PreferredTerm>
                </EnumeratedItem>
                <EnumeratedItem CodedValue="CPNIGMAB" nciodm:ExtCodeID="C92433">
                    <nciodm:CDISCSynonym>Chlamydia pneumoniae IgM Antibody</nciodm:CDISCSynonym>
                    <nciodm:CDISCDefinition>A measurement of the Chlamydia pneumoniae IgM in a biological specimen.</nciodm:CDISCDefinition>
                    <nciodm:PreferredTerm>Chlamydia pneumoniae IgM Antibody Measurement</nciodm:PreferredTerm>
                </EnumeratedItem>
                <EnumeratedItem CodedValue="CRDIGAAB" nciodm:ExtCodeID="C122112">
                    <nciodm:CDISCSynonym>Cardiolipin IgA Antibody</nciodm:CDISCSynonym>
                    <nciodm:CDISCDefinition>A measurement of the cardiolipin IgA antibody in a biological specimen.</nciodm:CDISCDefinition>
                    <nciodm:PreferredTerm>Cardiolipin IgA Antibody Measurement</nciodm:PreferredTerm>
                </EnumeratedItem>
                <EnumeratedItem CodedValue="CRDIGGAB" nciodm:ExtCodeID="C111144">
                    <nciodm:CDISCSynonym>Anti-Cardiolipin IgG Antibody</nciodm:CDISCSynonym>
                    <nciodm:CDISCSynonym>Cardiolipin IgG Antibody</nciodm:CDISCSynonym>
                    <nciodm:CDISCDefinition>A measurement of the cardiolipin IgG antibody in a biological specimen.</nciodm:CDISCDefinition>
                    <nciodm:PreferredTerm>Cardiolipin IgG Antibody Measurement</nciodm:PreferredTerm>
                </EnumeratedItem>
                <EnumeratedItem CodedValue="CRDIGMAB" nciodm:ExtCodeID="C103363">
                    <nciodm:CDISCSynonym>Cardiolipin IgM Antibody</nciodm:CDISCSynonym>
                    <nciodm:CDISCDefinition>A measurement of the cardiolipin IgM antibodies in a biological specimen.</nciodm:CDISCDefinition>
                    <nciodm:PreferredTerm>Cardiolipin IgM Antibody Measurement</nciodm:PreferredTerm>
                </EnumeratedItem>
                <EnumeratedItem CodedValue="CREAT" nciodm:ExtCodeID="C64547">
                    <nciodm:CDISCSynonym>Creatinine</nciodm:CDISCSynonym>
                    <nciodm:CDISCDefinition>A measurement of the creatinine in a biological specimen.</nciodm:CDISCDefinition>
                    <nciodm:PreferredTerm>Creatinine Measurement</nciodm:PreferredTerm>
                </EnumeratedItem>
                <EnumeratedItem CodedValue="CREATCLR" nciodm:ExtCodeID="C25747">
                    <nciodm:CDISCSynonym>Creatinine Clearance</nciodm:CDISCSynonym>
                    <nciodm:CDISCDefinition>A measurement of the volume of serum or plasma that would be cleared of creatinine by excretion of urine for a specified unit of time (e.g. one minute).</nciodm:CDISCDefinition>
                    <nciodm:PreferredTerm>Creatinine Clearance</nciodm:PreferredTerm>
                </EnumeratedItem>
                <EnumeratedItem CodedValue="CREATEXR" nciodm:ExtCodeID="C117833">
                    <nciodm:CDISCSynonym>Creatinine Excretion Rate</nciodm:CDISCSynonym>
                    <nciodm:CDISCDefinition>A measurement of the amount of creatinine being excreted in urine over a defined amount of time (e.g. one hour).</nciodm:CDISCDefinition>
                    <nciodm:PreferredTerm>Creatinine Urine Excretion Rate</nciodm:PreferredTerm>
                </EnumeratedItem>
                <EnumeratedItem CodedValue="CRENCE" nciodm:ExtCodeID="C74703">
                    <nciodm:CDISCSynonym>Crenated Cells</nciodm:CDISCSynonym>
                    <nciodm:CDISCSynonym>Echinocytes</nciodm:CDISCSynonym>
                    <nciodm:CDISCDefinition>A measurement of the Burr cells (erythrocytes characterized by the presence of multiple small, sharp projections evenly distributed across the cell surface) in a biological specimen.</nciodm:CDISCDefinition>
                    <nciodm:PreferredTerm>Crenated Cell Measurement</nciodm:PreferredTerm>
                </EnumeratedItem>
                <EnumeratedItem CodedValue="CRH" nciodm:ExtCodeID="C74851">
                    <nciodm:CDISCSynonym>Corticotropin Releasing Factor</nciodm:CDISCSynonym>
                    <nciodm:CDISCSynonym>Corticotropin Releasing Hormone</nciodm:CDISCSynonym>
                    <nciodm:CDISCDefinition>A measurement of the corticotropin releasing hormone in a biological specimen.</nciodm:CDISCDefinition>
                    <nciodm:PreferredTerm>Corticotropin Releasing Hormone Measurement</nciodm:PreferredTerm>
                </EnumeratedItem>
                <EnumeratedItem CodedValue="CRLPLSMN" nciodm:ExtCodeID="C100432">
                    <nciodm:CDISCSynonym>Caeruloplasmin</nciodm:CDISCSynonym>
                    <nciodm:CDISCSynonym>Ceruloplasmin</nciodm:CDISCSynonym>
                    <nciodm:CDISCDefinition>A measurement of ceruloplasmin in a biological specimen.</nciodm:CDISCDefinition>
                    <nciodm:PreferredTerm>Ceruloplasmin Measurement</nciodm:PreferredTerm>
                </EnumeratedItem>
                <EnumeratedItem CodedValue="CRP" nciodm:ExtCodeID="C64548">
                    <nciodm:CDISCSynonym>C Reactive Protein</nciodm:CDISCSynonym>
                    <nciodm:CDISCDefinition>A measurement of the C reactive protein in a biological specimen.</nciodm:CDISCDefinition>
                    <nciodm:PreferredTerm>C-Reactive Protein Measurement</nciodm:PreferredTerm>
                </EnumeratedItem>
                <EnumeratedItem CodedValue="CRTCREAT" nciodm:ExtCodeID="C106511">
                    <nciodm:CDISCSynonym>Corticosterone/Creatinine</nciodm:CDISCSynonym>
                    <nciodm:CDISCDefinition>A relative measurement (ratio or percentage) of the corticosterone to creatinine present in a sample.</nciodm:CDISCDefinition>
                    <nciodm:PreferredTerm>Corticosterone to Creatinine Ratio Measurement</nciodm:PreferredTerm>
                </EnumeratedItem>
                <EnumeratedItem CodedValue="CRTRONE" nciodm:ExtCodeID="C79434">
                    <nciodm:CDISCSynonym>Corticosterone</nciodm:CDISCSynonym>
                    <nciodm:CDISCDefinition>A measurement of corticosterone in a biological specimen.</nciodm:CDISCDefinition>
                    <nciodm:PreferredTerm>Corticosterone Measurement</nciodm:PreferredTerm>
                </EnumeratedItem>
                <EnumeratedItem CodedValue="CRYOGLBN" nciodm:ExtCodeID="C111164">
                    <nciodm:CDISCSynonym>Cryoglobulin</nciodm:CDISCSynonym>
                    <nciodm:CDISCDefinition>A measurement of cryoglobulin in a biological specimen.</nciodm:CDISCDefinition>
                    <nciodm:PreferredTerm>Cryoglobulin Measurement</nciodm:PreferredTerm>
                </EnumeratedItem>
                <EnumeratedItem CodedValue="CRYSTALS" nciodm:ExtCodeID="C74673">
                    <nciodm:CDISCSynonym>Crystals</nciodm:CDISCSynonym>
                    <nciodm:CDISCDefinition>A statement that indicates crystals were looked for in a biological specimen.</nciodm:CDISCDefinition>
                    <nciodm:PreferredTerm>Crystal Present Or Absent</nciodm:PreferredTerm>
                </EnumeratedItem>
                <EnumeratedItem CodedValue="CSAB" nciodm:ExtCodeID="C120634">
                    <nciodm:CDISCSynonym>Cathepsin Antibody</nciodm:CDISCSynonym>
                    <nciodm:CDISCDefinition>A measurement of the total cathepsin antibody in a biological specimen.</nciodm:CDISCDefinition>
                    <nciodm:PreferredTerm>Cathepsin Antibody Measurement</nciodm:PreferredTerm>
                </EnumeratedItem>
                <EnumeratedItem CodedValue="CSBACT" nciodm:ExtCodeID="C74762">
                    <nciodm:CDISCSynonym>Bacterial Casts</nciodm:CDISCSynonym>
                    <nciodm:CDISCDefinition>A measurement of the bacterial casts present in a biological specimen.</nciodm:CDISCDefinition>
                    <nciodm:PreferredTerm>Bacterial Cast Measurement</nciodm:PreferredTerm>
                </EnumeratedItem>
                <EnumeratedItem CodedValue="CSBROAD" nciodm:ExtCodeID="C96588">
                    <nciodm:CDISCSynonym>Broad Casts</nciodm:CDISCSynonym>
                    <nciodm:CDISCDefinition>A measurement of the broad casts in a biological specimen.</nciodm:CDISCDefinition>
                    <nciodm:PreferredTerm>Broad Casts Measurement</nciodm:PreferredTerm>
                </EnumeratedItem>
                <EnumeratedItem CodedValue="CSCELL" nciodm:ExtCodeID="C74764">
                    <nciodm:CDISCSynonym>Cellular Casts</nciodm:CDISCSynonym>
                    <nciodm:CDISCDefinition>A measurement of the cellular (white blood cell, red blood cell, epithelial and bacterial) casts present in a biological specimen.</nciodm:CDISCDefinition>
                    <nciodm:PreferredTerm>Cellular Cast Measurement</nciodm:PreferredTerm>
                </EnumeratedItem>
                <EnumeratedItem CodedValue="CSEPI" nciodm:ExtCodeID="C74779">
                    <nciodm:CDISCSynonym>Epithelial Casts</nciodm:CDISCSynonym>
                    <nciodm:CDISCDefinition>A measurement of the epithelial cell casts present in a biological specimen.</nciodm:CDISCDefinition>
                    <nciodm:PreferredTerm>Epithelial-Cast Measurement</nciodm:PreferredTerm>
                </EnumeratedItem>
                <EnumeratedItem CodedValue="CSEPI846" nciodm:ExtCodeID="C112220">
                    <nciodm:CDISCSynonym>846-Epitope</nciodm:CDISCSynonym>
                    <nciodm:CDISCSynonym>Aggrecan Chondroitin Sulfate Epitope 846</nciodm:CDISCSynonym>
                    <nciodm:CDISCSynonym>CS846</nciodm:CDISCSynonym>
                    <nciodm:CDISCSynonym>Chondroitin Sulfate Epitope 846</nciodm:CDISCSynonym>
                    <nciodm:CDISCSynonym>Chondroitin Sulfate Proteoglycan 1 Epitope 846</nciodm:CDISCSynonym>
                    <nciodm:CDISCDefinition>A measurement of the 846 epitope present on the chondroitin sulfate chains of aggrecan in a biological specimen.</nciodm:CDISCDefinition>
                    <nciodm:PreferredTerm>Aggrecan Chondroitin Sulfate Epitope 846 Measurement</nciodm:PreferredTerm>
                </EnumeratedItem>
                <EnumeratedItem CodedValue="CSFAT" nciodm:ExtCodeID="C74766">
                    <nciodm:CDISCSynonym>Fatty Casts</nciodm:CDISCSynonym>
                    <nciodm:CDISCDefinition>A measurement of the fatty casts present in a biological specimen.</nciodm:CDISCDefinition>
                    <nciodm:PreferredTerm>Fatty Cast Measurement</nciodm:PreferredTerm>
                </EnumeratedItem>
                <EnumeratedItem CodedValue="CSGRAN" nciodm:ExtCodeID="C74768">
                    <nciodm:CDISCSynonym>Granular Casts</nciodm:CDISCSynonym>
                    <nciodm:CDISCDefinition>A measurement of the granular (coarse and fine) casts present in a biological specimen.</nciodm:CDISCDefinition>
                    <nciodm:PreferredTerm>Granular Cast Measurement</nciodm:PreferredTerm>
                </EnumeratedItem>
                <EnumeratedItem CodedValue="CSGRANC" nciodm:ExtCodeID="C74765">
                    <nciodm:CDISCSynonym>Granular Coarse Casts</nciodm:CDISCSynonym>
                    <nciodm:CDISCDefinition>A measurement of the coarse granular casts present in a biological specimen.</nciodm:CDISCDefinition>
                    <nciodm:PreferredTerm>Coarse Granular Cast Measurement</nciodm:PreferredTerm>
                </EnumeratedItem>
                <EnumeratedItem CodedValue="CSGRANF" nciodm:ExtCodeID="C74769">
                    <nciodm:CDISCSynonym>Granular Fine Casts</nciodm:CDISCSynonym>
                    <nciodm:CDISCDefinition>A measurement of the fine granular casts present in a biological specimen.</nciodm:CDISCDefinition>
                    <nciodm:PreferredTerm>Granular Fine Cast Measurement</nciodm:PreferredTerm>
                </EnumeratedItem>
                <EnumeratedItem CodedValue="CSHYAL" nciodm:ExtCodeID="C74770">
                    <nciodm:CDISCSynonym>Hyaline Casts</nciodm:CDISCSynonym>
                    <nciodm:CDISCDefinition>A measurement of the hyaline casts present in a biological specimen.</nciodm:CDISCDefinition>
                    <nciodm:PreferredTerm>Hyaline Cast Measurement</nciodm:PreferredTerm>
                </EnumeratedItem>
                <EnumeratedItem CodedValue="CSMIX" nciodm:ExtCodeID="C74771">
                    <nciodm:CDISCSynonym>Mixed Casts</nciodm:CDISCSynonym>
                    <nciodm:CDISCDefinition>A measurement of the mixed (the cast contains a mixture of cell types) casts present in a biological specimen.</nciodm:CDISCDefinition>
                    <nciodm:PreferredTerm>Mixed Cast Count</nciodm:PreferredTerm>
                </EnumeratedItem>
                <EnumeratedItem CodedValue="CSRBC" nciodm:ExtCodeID="C74772">
                    <nciodm:CDISCSynonym>RBC Casts</nciodm:CDISCSynonym>
                    <nciodm:CDISCDefinition>A measurement of the red blood cell casts present in a biological specimen.</nciodm:CDISCDefinition>
                    <nciodm:PreferredTerm>Red Blood Cell Cast Measurement</nciodm:PreferredTerm>
                </EnumeratedItem>
                <EnumeratedItem CodedValue="CSUNCLA" nciodm:ExtCodeID="C74776">
                    <nciodm:CDISCSynonym>Unclassified Casts</nciodm:CDISCSynonym>
                    <nciodm:CDISCDefinition>A measurement of the unclassifiable casts present in a biological specimen.</nciodm:CDISCDefinition>
                    <nciodm:PreferredTerm>Unclassified Cast Measurement</nciodm:PreferredTerm>
                </EnumeratedItem>
                <EnumeratedItem CodedValue="CSWAX" nciodm:ExtCodeID="C74777">
                    <nciodm:CDISCSynonym>Waxy Casts</nciodm:CDISCSynonym>
                    <nciodm:CDISCDefinition>A measurement of the waxy casts present in a biological specimen.</nciodm:CDISCDefinition>
                    <nciodm:PreferredTerm>Waxy Cell Cast Measurement</nciodm:PreferredTerm>
                </EnumeratedItem>
                <EnumeratedItem CodedValue="CSWBC" nciodm:ExtCodeID="C74778">
                    <nciodm:CDISCSynonym>WBC Casts</nciodm:CDISCSynonym>
                    <nciodm:CDISCDefinition>A measurement of the white blood cell casts present in a biological specimen.</nciodm:CDISCDefinition>
                    <nciodm:PreferredTerm>White Blood Cell Cast Measurement</nciodm:PreferredTerm>
                </EnumeratedItem>
                <EnumeratedItem CodedValue="CTBIGGAB" nciodm:ExtCodeID="C116194">
                    <nciodm:CDISCSynonym>Cholera Toxin B Subunit IgG Antibody</nciodm:CDISCSynonym>
                    <nciodm:CDISCDefinition>A measurement of the cholera toxin B subunit IgG antibody in a biological specimen.</nciodm:CDISCDefinition>
                    <nciodm:PreferredTerm>Cholera Toxin B Subunit IgG Antibody Measurement</nciodm:PreferredTerm>
                </EnumeratedItem>
                <EnumeratedItem CodedValue="CTC" nciodm:ExtCodeID="C96593">
                    <nciodm:CDISCSynonym>Circulating Tumor Cells</nciodm:CDISCSynonym>
                    <nciodm:CDISCDefinition>A measurement of the circulating tumor cells in a biological specimen.</nciodm:CDISCDefinition>
                    <nciodm:PreferredTerm>Circulating Tumor Cell Count</nciodm:PreferredTerm>
                </EnumeratedItem>
                <EnumeratedItem CodedValue="CTOT" nciodm:ExtCodeID="C80160">
                    <nciodm:CDISCSynonym>Complement Total</nciodm:CDISCSynonym>
                    <nciodm:CDISCDefinition>A measurement of the total complement in a biological specimen.</nciodm:CDISCDefinition>
                    <nciodm:PreferredTerm>Complement Measurement</nciodm:PreferredTerm>
                </EnumeratedItem>
                <EnumeratedItem CodedValue="CTRIGAAB" nciodm:ExtCodeID="C100464">
                    <nciodm:CDISCSynonym>Chlamydia trachomatis IgA Antibody</nciodm:CDISCSynonym>
                    <nciodm:CDISCDefinition>A measurement of the Chlamydia trachomatis IgA antibody in a biological specimen.</nciodm:CDISCDefinition>
                    <nciodm:PreferredTerm>Chlamydia trachomatis IgA Antibody Measurement</nciodm:PreferredTerm>
                </EnumeratedItem>
                <EnumeratedItem CodedValue="CTRIGGAB" nciodm:ExtCodeID="C100466">
                    <nciodm:CDISCSynonym>Chlamydia trachomatis IgG Antibody</nciodm:CDISCSynonym>
                    <nciodm:CDISCDefinition>A measurement of the Chlamydia trachomatis IgG antibody in a biological specimen.</nciodm:CDISCDefinition>
                    <nciodm:PreferredTerm>Chlamydia trachomatis IgG Antibody Measurement</nciodm:PreferredTerm>
                </EnumeratedItem>
                <EnumeratedItem CodedValue="CTRIGMAB" nciodm:ExtCodeID="C100465">
                    <nciodm:CDISCSynonym>Chlamydia trachomatis IgM Antibody</nciodm:CDISCSynonym>
                    <nciodm:CDISCDefinition>A measurement of the Chlamydia trachomatis IgM antibody in a biological specimen.</nciodm:CDISCDefinition>
                    <nciodm:PreferredTerm>Chlamydia trachomatis IgM Antibody Measurement</nciodm:PreferredTerm>
                </EnumeratedItem>
                <EnumeratedItem CodedValue="CTTIGGAB" nciodm:ExtCodeID="C103382">
                    <nciodm:CDISCSynonym>Clostridium tetani IgG Antibody</nciodm:CDISCSynonym>
                    <nciodm:CDISCDefinition>A measurement of the Clostridium tetani IgG antibody in a biological specimen.</nciodm:CDISCDefinition>
                    <nciodm:PreferredTerm>Clostridium tetani IgG Antibody Measurement</nciodm:PreferredTerm>
                </EnumeratedItem>
                <EnumeratedItem CodedValue="CTXI" nciodm:ExtCodeID="C82038">
                    <nciodm:CDISCSynonym>Type I Collagen C-Telopeptides</nciodm:CDISCSynonym>
                    <nciodm:CDISCSynonym>Type I Collagen X-linked C-telopeptide</nciodm:CDISCSynonym>
                    <nciodm:CDISCDefinition>A measurement of the type I collagen C-telopeptides in a biological specimen.</nciodm:CDISCDefinition>
                    <nciodm:PreferredTerm>Type I Collagen C-Telopeptide Measurement</nciodm:PreferredTerm>
                </EnumeratedItem>
                <EnumeratedItem CodedValue="CTXII" nciodm:ExtCodeID="C82040">
                    <nciodm:CDISCSynonym>Type II Collagen C-Telopeptides</nciodm:CDISCSynonym>
                    <nciodm:CDISCDefinition>A measurement of the type II collagen C-telopeptides in a biological specimen.</nciodm:CDISCDefinition>
                    <nciodm:PreferredTerm>Type II Collagen C-Telopeptide Measurement</nciodm:PreferredTerm>
                </EnumeratedItem>
                <EnumeratedItem CodedValue="CTXIICRT" nciodm:ExtCodeID="C122113">
                    <nciodm:CDISCSynonym>Type II Collagen C-Telopeptides/Creat</nciodm:CDISCSynonym>
                    <nciodm:CDISCDefinition>A relative measurement (ratio or percentage) of the type II collagen C-telopeptides to creatinine in a biological specimen.</nciodm:CDISCDefinition>
                    <nciodm:PreferredTerm>Type II Collagen C-Telopeptides to Creatinine Ratio Measurement</nciodm:PreferredTerm>
                </EnumeratedItem>
                <EnumeratedItem CodedValue="CXCL10" nciodm:ExtCodeID="C112238">
                    <nciodm:CDISCSynonym>Chemokine (C-X-C Motif) Ligand 10</nciodm:CDISCSynonym>
                    <nciodm:CDISCSynonym>IP-10</nciodm:CDISCSynonym>
                    <nciodm:CDISCSynonym>Interferon Gamma-induced Protein 10</nciodm:CDISCSynonym>
                    <nciodm:CDISCSynonym>Small-inducible Cytokine B10</nciodm:CDISCSynonym>
                    <nciodm:CDISCDefinition>A measurement of the CXCL10, chemokine (C-X-C motif) ligand 10, in a biological specimen.</nciodm:CDISCDefinition>
                    <nciodm:PreferredTerm>Chemokine (C-X-C Motif) Ligand 10 Measurement</nciodm:PreferredTerm>
                </EnumeratedItem>
                <EnumeratedItem CodedValue="CXCR3" nciodm:ExtCodeID="C100431">
                    <nciodm:CDISCSynonym>CD183</nciodm:CDISCSynonym>
                    <nciodm:CDISCSynonym>CXCR3</nciodm:CDISCSynonym>
                    <nciodm:CDISCSynonym>Chemokine (C-X-C Motif) Receptor 3</nciodm:CDISCSynonym>
                    <nciodm:CDISCSynonym>GPR9</nciodm:CDISCSynonym>
                    <nciodm:CDISCDefinition>A measurement of the CXCR3, chemokine (C-X-C motif) receptor 3, in a biological specimen.</nciodm:CDISCDefinition>
                    <nciodm:PreferredTerm>Chemokine Receptor CXCR3 Measurement</nciodm:PreferredTerm>
                </EnumeratedItem>
                <EnumeratedItem CodedValue="CYACIDU" nciodm:ExtCodeID="C74912">
                    <nciodm:CDISCSynonym>Acid Urate Crystals</nciodm:CDISCSynonym>
                    <nciodm:CDISCDefinition>A measurement of the acid urate crystals present in a biological specimen.</nciodm:CDISCDefinition>
                    <nciodm:PreferredTerm>Acid Urate Crystal Measurement</nciodm:PreferredTerm>
                </EnumeratedItem>
                <EnumeratedItem CodedValue="CYAMMBIU" nciodm:ExtCodeID="C105590">
                    <nciodm:CDISCSynonym>Acid Ammonium Urate Crystals</nciodm:CDISCSynonym>
                    <nciodm:CDISCSynonym>Ammonium Biurate Crystals</nciodm:CDISCSynonym>
                    <nciodm:CDISCSynonym>Ammonium Urate Crystals</nciodm:CDISCSynonym>
                    <nciodm:CDISCDefinition>A measurement of the ammonium biurate crystals present in a biological specimen.</nciodm:CDISCDefinition>
                    <nciodm:PreferredTerm>Ammonium Biurate Crystals Measurement</nciodm:PreferredTerm>
                </EnumeratedItem>
                <EnumeratedItem CodedValue="CYAMMOX" nciodm:ExtCodeID="C74759">
                    <nciodm:CDISCSynonym>Ammonium Oxalate Crystals</nciodm:CDISCSynonym>
                    <nciodm:CDISCDefinition>A measurement of the ammonium oxalate crystals present in a urine specimen.</nciodm:CDISCDefinition>
                    <nciodm:PreferredTerm>Urine Ammonium Oxalate Crystal Measurement</nciodm:PreferredTerm>
                </EnumeratedItem>
                <EnumeratedItem CodedValue="CYAMORPH" nciodm:ExtCodeID="C74665">
                    <nciodm:CDISCSynonym>Amorphous Crystals</nciodm:CDISCSynonym>
                    <nciodm:CDISCDefinition>A measurement of the amorphous (Note: phosphate or urate, depending on pH) crystals present in a biological specimen.</nciodm:CDISCDefinition>
                    <nciodm:PreferredTerm>Amorphous Crystal Measurement</nciodm:PreferredTerm>
                </EnumeratedItem>
                <EnumeratedItem CodedValue="CYAMPPH" nciodm:ExtCodeID="C92243">
                    <nciodm:CDISCSynonym>Amorphous Phosphate Crystals</nciodm:CDISCSynonym>
                    <nciodm:CDISCDefinition>A measurement of the amorphous phosphate crystals in a biological specimen.</nciodm:CDISCDefinition>
                    <nciodm:PreferredTerm>Amorphous Phosphate Crystals Measurement</nciodm:PreferredTerm>
                </EnumeratedItem>
                <EnumeratedItem CodedValue="CYAMPURT" nciodm:ExtCodeID="C92244">
                    <nciodm:CDISCSynonym>Amorphous Urate Crystals</nciodm:CDISCSynonym>
                    <nciodm:CDISCDefinition>A measurement of the amorphous urate crystals in a biological specimen.</nciodm:CDISCDefinition>
                    <nciodm:PreferredTerm>Amorphous Urate Crystals Measurement</nciodm:PreferredTerm>
                </EnumeratedItem>
                <EnumeratedItem CodedValue="CYBILI" nciodm:ExtCodeID="C74668">
                    <nciodm:CDISCSynonym>Bilirubin Crystals</nciodm:CDISCSynonym>
                    <nciodm:CDISCDefinition>A measurement of the bilirubin crystals present in a biological specimen.</nciodm:CDISCDefinition>
                    <nciodm:PreferredTerm>Bilirubin Crystal Measurement</nciodm:PreferredTerm>
                </EnumeratedItem>
                <EnumeratedItem CodedValue="CYCACAR" nciodm:ExtCodeID="C74669">
                    <nciodm:CDISCSynonym>Calcium Carbonate Crystals</nciodm:CDISCSynonym>
                    <nciodm:CDISCDefinition>A measurement of the calcium carbonate crystals present in a biological specimen.</nciodm:CDISCDefinition>
                    <nciodm:PreferredTerm>Calcium Carbonate Crystal Measurement</nciodm:PreferredTerm>
                </EnumeratedItem>
                <EnumeratedItem CodedValue="CYCAOXA" nciodm:ExtCodeID="C74670">
                    <nciodm:CDISCSynonym>Calcium Oxalate Crystals</nciodm:CDISCSynonym>
                    <nciodm:CDISCDefinition>A measurement of the calcium oxalate crystals present in a biological specimen.</nciodm:CDISCDefinition>
                    <nciodm:PreferredTerm>Calcium Oxalate Crystal Measurement</nciodm:PreferredTerm>
                </EnumeratedItem>
                <EnumeratedItem CodedValue="CYCAPHOS" nciodm:ExtCodeID="C74671">
                    <nciodm:CDISCSynonym>Calcium Phosphate Crystals</nciodm:CDISCSynonym>
                    <nciodm:CDISCDefinition>A measurement of the calcium phosphate crystals present in a biological specimen.</nciodm:CDISCDefinition>
                    <nciodm:PreferredTerm>Calcium Phosphate Crystal Measurement</nciodm:PreferredTerm>
                </EnumeratedItem>
                <EnumeratedItem CodedValue="CYCASULF" nciodm:ExtCodeID="C124340">
                    <nciodm:CDISCSynonym>Calcium Sulfate Crystals</nciodm:CDISCSynonym>
                    <nciodm:CDISCDefinition>A measurement of the calcium sulfate crystals present in a biological specimen.</nciodm:CDISCDefinition>
                    <nciodm:PreferredTerm>Calcium Sulfate Crystals Measurement</nciodm:PreferredTerm>
                </EnumeratedItem>
                <EnumeratedItem CodedValue="CYCHOL" nciodm:ExtCodeID="C74672">
                    <nciodm:CDISCSynonym>Cholesterol Crystals</nciodm:CDISCSynonym>
                    <nciodm:CDISCDefinition>A measurement of the cholesterol crystals present in a biological specimen.</nciodm:CDISCDefinition>
                    <nciodm:PreferredTerm>Cholesterol Crystal Measurement</nciodm:PreferredTerm>
                </EnumeratedItem>
                <EnumeratedItem CodedValue="CYCYSTIN" nciodm:ExtCodeID="C74674">
                    <nciodm:CDISCSynonym>Cystine Crystals</nciodm:CDISCSynonym>
                    <nciodm:CDISCDefinition>A measurement of the cystine crystals present in a biological specimen.</nciodm:CDISCDefinition>
                    <nciodm:PreferredTerm>Cystine Crystal Measurement</nciodm:PreferredTerm>
                </EnumeratedItem>
                <EnumeratedItem CodedValue="CYFRA211" nciodm:ExtCodeID="C106514">
                    <nciodm:CDISCSynonym>CYFRA21-1</nciodm:CDISCSynonym>
                    <nciodm:CDISCSynonym>Cytokeratin 19 Fragment</nciodm:CDISCSynonym>
                    <nciodm:CDISCSynonym>Cytokeratin Fragment 21-1</nciodm:CDISCSynonym>
                    <nciodm:CDISCDefinition>A measurement of the cytokeratin 19 fragment 21-1 in a biological specimen.</nciodm:CDISCDefinition>
                    <nciodm:PreferredTerm>Cytokeratin Fragment 21-1 Measurement</nciodm:PreferredTerm>
                </EnumeratedItem>
                <EnumeratedItem CodedValue="CYHGBC" nciodm:ExtCodeID="C112288">
                    <nciodm:CDISCSynonym>Hemoglobin C Crystals</nciodm:CDISCSynonym>
                    <nciodm:CDISCDefinition>A measurement of hemoglobin C crystals in a biological specimen.</nciodm:CDISCDefinition>
                    <nciodm:PreferredTerm>Hemoglobin C Crystals Measurement</nciodm:PreferredTerm>
                </EnumeratedItem>
                <EnumeratedItem CodedValue="CYHIPPAC" nciodm:ExtCodeID="C74754">
                    <nciodm:CDISCSynonym>Hippuric Acid Crystals</nciodm:CDISCSynonym>
                    <nciodm:CDISCDefinition>A measurement of the hippuric acid crystals present in a biological specimen.</nciodm:CDISCDefinition>
                    <nciodm:PreferredTerm>Hippuric Acid Crystal Measurement</nciodm:PreferredTerm>
                </EnumeratedItem>
                <EnumeratedItem CodedValue="CYLEUC" nciodm:ExtCodeID="C74680">
                    <nciodm:CDISCSynonym>Leucine Crystals</nciodm:CDISCSynonym>
                    <nciodm:CDISCDefinition>A measurement of the leucine crystals present in a biological specimen.</nciodm:CDISCDefinition>
                    <nciodm:PreferredTerm>Leucine Crystal Measurement</nciodm:PreferredTerm>
                </EnumeratedItem>
                <EnumeratedItem CodedValue="CYMSU" nciodm:ExtCodeID="C74681">
                    <nciodm:CDISCSynonym>Monosodium Urate Crystals</nciodm:CDISCSynonym>
                    <nciodm:CDISCDefinition>A measurement of the monosodium urate crystals present in a biological specimen.</nciodm:CDISCDefinition>
                    <nciodm:PreferredTerm>Monosodium Urate Crystal Measurement</nciodm:PreferredTerm>
                </EnumeratedItem>
                <EnumeratedItem CodedValue="CYSCREAT" nciodm:ExtCodeID="C106513">
                    <nciodm:CDISCSynonym>Cystatin C/Creatinine</nciodm:CDISCSynonym>
                    <nciodm:CDISCDefinition>A relative measurement (ratio or percentage) of the cystatin C to creatinine present in a sample.</nciodm:CDISCDefinition>
                    <nciodm:PreferredTerm>Cystatin C to Creatinine Ratio Measurement</nciodm:PreferredTerm>
                </EnumeratedItem>
                <EnumeratedItem CodedValue="CYSTARCH" nciodm:ExtCodeID="C81951">
                    <nciodm:CDISCSynonym>Starch Crystals</nciodm:CDISCSynonym>
                    <nciodm:CDISCDefinition>A measurement of the starch crystals in a biological specimen.</nciodm:CDISCDefinition>
                    <nciodm:PreferredTerm>Starch Crystal Measurement</nciodm:PreferredTerm>
                </EnumeratedItem>
                <EnumeratedItem CodedValue="CYSTATC" nciodm:ExtCodeID="C92290">
                    <nciodm:CDISCSynonym>Cystatin C</nciodm:CDISCSynonym>
                    <nciodm:CDISCDefinition>A measurement of the cystatin C in a biological specimen.</nciodm:CDISCDefinition>
                    <nciodm:PreferredTerm>Cystatin C Measurement</nciodm:PreferredTerm>
                </EnumeratedItem>
                <EnumeratedItem CodedValue="CYSTINE" nciodm:ExtCodeID="C105441">
                    <nciodm:CDISCSynonym>Cystine</nciodm:CDISCSynonym>
                    <nciodm:CDISCDefinition>A measurement of the cystine in a biological specimen.</nciodm:CDISCDefinition>
                    <nciodm:PreferredTerm>Cystine Measurement</nciodm:PreferredTerm>
                </EnumeratedItem>
                <EnumeratedItem CodedValue="CYSULFA" nciodm:ExtCodeID="C74755">
                    <nciodm:CDISCSynonym>Sulfa Crystals</nciodm:CDISCSynonym>
                    <nciodm:CDISCDefinition>A measurement of the sulfa crystals present in a biological specimen.</nciodm:CDISCDefinition>
                    <nciodm:PreferredTerm>Sulfa Crystal Measurement</nciodm:PreferredTerm>
                </EnumeratedItem>
                <EnumeratedItem CodedValue="CYTRPHOS" nciodm:ExtCodeID="C74756">
                    <nciodm:CDISCSynonym>Triple Phosphate Crystals</nciodm:CDISCSynonym>
                    <nciodm:CDISCDefinition>A measurement of the triple phosphate crystals present in a biological specimen.</nciodm:CDISCDefinition>
                    <nciodm:PreferredTerm>Triple Phosphate Crystal Measurement</nciodm:PreferredTerm>
                </EnumeratedItem>
                <EnumeratedItem CodedValue="CYTYRO" nciodm:ExtCodeID="C74683">
                    <nciodm:CDISCSynonym>Tyrosine Crystals</nciodm:CDISCSynonym>
                    <nciodm:CDISCDefinition>A measurement of the tyrosine crystals present in a biological specimen.</nciodm:CDISCDefinition>
                    <nciodm:PreferredTerm>Tyrosine Crystal Measurement</nciodm:PreferredTerm>
                </EnumeratedItem>
                <EnumeratedItem CodedValue="CYUNCLA" nciodm:ExtCodeID="C74757">
                    <nciodm:CDISCSynonym>Unclassified Crystals</nciodm:CDISCSynonym>
                    <nciodm:CDISCDefinition>A measurement of the unclassifiable crystals present in a biological specimen.</nciodm:CDISCDefinition>
                    <nciodm:PreferredTerm>Unclassified Crystal Measurement</nciodm:PreferredTerm>
                </EnumeratedItem>
                <EnumeratedItem CodedValue="CYURIAC" nciodm:ExtCodeID="C74684">
                    <nciodm:CDISCSynonym>Uric Acid Crystals</nciodm:CDISCSynonym>
                    <nciodm:CDISCDefinition>A measurement of the uric acid crystals present in a biological specimen.</nciodm:CDISCDefinition>
                    <nciodm:PreferredTerm>Uric Acid Crystal Measurement</nciodm:PreferredTerm>
                </EnumeratedItem>
                <EnumeratedItem CodedValue="DDIMER" nciodm:ExtCodeID="C82621">
                    <nciodm:CDISCSynonym>D-Dimer</nciodm:CDISCSynonym>
                    <nciodm:CDISCDefinition>A measurement of the d-dimers in a biological specimen.</nciodm:CDISCDefinition>
                    <nciodm:PreferredTerm>D-Dimer Measurement</nciodm:PreferredTerm>
                </EnumeratedItem>
                <EnumeratedItem CodedValue="DENSITY" nciodm:ExtCodeID="C45781">
                    <nciodm:CDISCSynonym>Density</nciodm:CDISCSynonym>
                    <nciodm:CDISCDefinition>A measurement of the compactness of a biological specimen expressed in mass per unit volume.</nciodm:CDISCDefinition>
                    <nciodm:PreferredTerm>Density</nciodm:PreferredTerm>
                </EnumeratedItem>
                <EnumeratedItem CodedValue="DGNWBC" nciodm:ExtCodeID="C111190">
                    <nciodm:CDISCSynonym>Degenerated Leukocytes</nciodm:CDISCSynonym>
                    <nciodm:CDISCSynonym>Degenerated WBC</nciodm:CDISCSynonym>
                    <nciodm:CDISCSynonym>Degenerated White Blood Cells</nciodm:CDISCSynonym>
                    <nciodm:CDISCDefinition>A measurement of the degenerated leukocytes (leukocytes that show deterioration in form or function) in a biological specimen.</nciodm:CDISCDefinition>
                    <nciodm:PreferredTerm>Degenerated Leukocyte Count</nciodm:PreferredTerm>
                </EnumeratedItem>
                <EnumeratedItem CodedValue="DHEA" nciodm:ExtCodeID="C74852">
                    <nciodm:CDISCSynonym>Dehydroepiandrosterone</nciodm:CDISCSynonym>
                    <nciodm:CDISCSynonym>Dehydroisoandrosterone</nciodm:CDISCSynonym>
                    <nciodm:CDISCDefinition>A measurement of the dehydroepiandrosterone hormone in a biological specimen.</nciodm:CDISCDefinition>
                    <nciodm:PreferredTerm>Dehydroepiandrosterone Measurement</nciodm:PreferredTerm>
                </EnumeratedItem>
                <EnumeratedItem CodedValue="DHEAS" nciodm:ExtCodeID="C96629">
                    <nciodm:CDISCSynonym>DHEA Sulfate</nciodm:CDISCSynonym>
                    <nciodm:CDISCSynonym>DHEA-S</nciodm:CDISCSynonym>
                    <nciodm:CDISCSynonym>Dehydroepiandrosterone Sulfate</nciodm:CDISCSynonym>
                    <nciodm:CDISCSynonym>sDHEA</nciodm:CDISCSynonym>
                    <nciodm:CDISCDefinition>A measurement of the sulfated Dehydroepiandrosterone in a biological specimen.</nciodm:CDISCDefinition>
                    <nciodm:PreferredTerm>Sulfated DHEA Measurement</nciodm:PreferredTerm>
                </EnumeratedItem>
                <EnumeratedItem CodedValue="DHPG" nciodm:ExtCodeID="C101017">
                    <nciodm:CDISCSynonym>3,4-Dihydroxyphenylglycol</nciodm:CDISCSynonym>
                    <nciodm:CDISCSynonym>3.4 Dihydroxyphenylglycol</nciodm:CDISCSynonym>
                    <nciodm:CDISCDefinition>A measurement of the catecholamine metabolite, 3,4-Dihydroxyphenylglycol in a biological specimen.</nciodm:CDISCDefinition>
                    <nciodm:PreferredTerm>3,4-Dihydroxyphenylglycol Measurement</nciodm:PreferredTerm>
                </EnumeratedItem>
                <EnumeratedItem CodedValue="DHT" nciodm:ExtCodeID="C74853">
                    <nciodm:CDISCSynonym>Androstanalone</nciodm:CDISCSynonym>
                    <nciodm:CDISCSynonym>Dihydrotestosterone</nciodm:CDISCSynonym>
                    <nciodm:CDISCDefinition>A measurement of the dihydrotestosterone hormone in a biological specimen.</nciodm:CDISCDefinition>
                    <nciodm:PreferredTerm>Dihydrotestosterone Measurement</nciodm:PreferredTerm>
                </EnumeratedItem>
                <EnumeratedItem CodedValue="DIHYDCDN" nciodm:ExtCodeID="C74878">
                    <nciodm:CDISCSynonym>Dihydrocodeine</nciodm:CDISCSynonym>
                    <nciodm:CDISCDefinition>A measurement of the dihydrocodeine present in a biological specimen.</nciodm:CDISCDefinition>
                    <nciodm:PreferredTerm>Dihydrocodeine Measurement</nciodm:PreferredTerm>
                </EnumeratedItem>
                <EnumeratedItem CodedValue="DNAAB" nciodm:ExtCodeID="C81973">
                    <nciodm:CDISCSynonym>Anti-DNA Antibodies</nciodm:CDISCSynonym>
                    <nciodm:CDISCSynonym>Anti-ds-DNA Antibodies</nciodm:CDISCSynonym>
                    <nciodm:CDISCDefinition>A measurement of the anti-DNA antibodies in a biological specimen.</nciodm:CDISCDefinition>
                    <nciodm:PreferredTerm>Anti-DNA Antibody Measurement</nciodm:PreferredTerm>
                </EnumeratedItem>
                <EnumeratedItem CodedValue="DNASEBAB" nciodm:ExtCodeID="C100463">
                    <nciodm:CDISCSynonym>Anti-Dnase B</nciodm:CDISCSynonym>
                    <nciodm:CDISCSynonym>DNase-B Antibody</nciodm:CDISCSynonym>
                    <nciodm:CDISCDefinition>A measurement of Dnase-B antibody in a biological specimen.</nciodm:CDISCDefinition>
                    <nciodm:PreferredTerm>DNase-B Antibody Measurement</nciodm:PreferredTerm>
                </EnumeratedItem>
                <EnumeratedItem CodedValue="DOHLE" nciodm:ExtCodeID="C74610">
                    <nciodm:CDISCSynonym>Dohle Bodies</nciodm:CDISCSynonym>
                    <nciodm:CDISCDefinition>A measurement of the Dohle bodies (blue-gray, basophilic, leukocyte inclusions located in the peripheral cytoplasm of neutrophils) in a biological specimen.</nciodm:CDISCDefinition>
                    <nciodm:PreferredTerm>Dohle Body Measurement</nciodm:PreferredTerm>
                </EnumeratedItem>
                <EnumeratedItem CodedValue="DOPAC" nciodm:ExtCodeID="C103345">
                    <nciodm:CDISCSynonym>3,4-Dihydroxyphenylacetic Acid</nciodm:CDISCSynonym>
                    <nciodm:CDISCDefinition>A measurement of the 3,4-dihydroxyphenylacetic acid in a biological specimen.</nciodm:CDISCDefinition>
                    <nciodm:PreferredTerm>3,4-Dihydroxyphenylacetic Acid Measurement</nciodm:PreferredTerm>
                </EnumeratedItem>
                <EnumeratedItem CodedValue="DOPAMINE" nciodm:ExtCodeID="C74854">
                    <nciodm:CDISCSynonym>Dopamine</nciodm:CDISCSynonym>
                    <nciodm:CDISCDefinition>A measurement of the dopamine hormone in a biological specimen.</nciodm:CDISCDefinition>
                    <nciodm:PreferredTerm>Dopamine Measurement</nciodm:PreferredTerm>
                </EnumeratedItem>
                <EnumeratedItem CodedValue="DPD" nciodm:ExtCodeID="C79443">
                    <nciodm:CDISCSynonym>Deoxypyridinoline</nciodm:CDISCSynonym>
                    <nciodm:CDISCDefinition>A measurement of the deoxypyridinoline in a biological specimen.</nciodm:CDISCDefinition>
                    <nciodm:PreferredTerm>Deoxypyridinoline Measurement</nciodm:PreferredTerm>
                </EnumeratedItem>
                <EnumeratedItem CodedValue="DPDCREAT" nciodm:ExtCodeID="C79444">
                    <nciodm:CDISCSynonym>Deoxypyridinoline/Creatinine</nciodm:CDISCSynonym>
                    <nciodm:CDISCDefinition>A relative measurement (ratio or percentage) of the deoxypyridinoline to creatinine in a biological specimen.</nciodm:CDISCDefinition>
                    <nciodm:PreferredTerm>Deoxypyridinoline to Creatinine Ratio Measurement</nciodm:PreferredTerm>
                </EnumeratedItem>
                <EnumeratedItem CodedValue="DPPIVA" nciodm:ExtCodeID="C103387">
                    <nciodm:CDISCSynonym>DPPIV Activity</nciodm:CDISCSynonym>
                    <nciodm:CDISCDefinition>A measurement of the biological activity of dipeptidyl peptidase-4 in a biological specimen.</nciodm:CDISCDefinition>
                    <nciodm:PreferredTerm>Dipeptidyl Peptidase-4 Activity Measurement</nciodm:PreferredTerm>
                </EnumeratedItem>
                <EnumeratedItem CodedValue="DPTIGGAB" nciodm:ExtCodeID="C103388">
                    <nciodm:CDISCSynonym>Diphtheria IgG Antibody</nciodm:CDISCSynonym>
                    <nciodm:CDISCDefinition>A measurement of the Diphtheria IgG antibodies in a biological specimen.</nciodm:CDISCDefinition>
                    <nciodm:PreferredTerm>Diphtheria IgG Antibody Measurement</nciodm:PreferredTerm>
                </EnumeratedItem>
                <EnumeratedItem CodedValue="DRUGSCR" nciodm:ExtCodeID="C78139">
                    <nciodm:CDISCSynonym>Drug Screen</nciodm:CDISCSynonym>
                    <nciodm:CDISCDefinition>An indication of the presence or absence of recreational drugs or drugs of abuse in a biological specimen.</nciodm:CDISCDefinition>
                    <nciodm:PreferredTerm>Drug Test</nciodm:PreferredTerm>
                </EnumeratedItem>
                <EnumeratedItem CodedValue="DRVVT" nciodm:ExtCodeID="C96696">
                    <nciodm:CDISCSynonym>Dilute Russell's Viper Venom Time</nciodm:CDISCSynonym>
                    <nciodm:CDISCSynonym>Lupus Anticoagulant Test</nciodm:CDISCSynonym>
                    <nciodm:CDISCDefinition>A measurement of the time it takes a plasma sample to clot after adding dilute Russell's viper venom.</nciodm:CDISCDefinition>
                    <nciodm:PreferredTerm>Dilute Russell's Viper Venom Time Measurement</nciodm:PreferredTerm>
                </EnumeratedItem>
                <EnumeratedItem CodedValue="DRVVTRT" nciodm:ExtCodeID="C103386">
                    <nciodm:CDISCSynonym>Lupus Anticoagulant Ratio</nciodm:CDISCSynonym>
                    <nciodm:CDISCDefinition>A relative measurement (ratio or percentage) of the dilute Russell's viper venom time in a subject sample to a control sample.</nciodm:CDISCDefinition>
                    <nciodm:PreferredTerm>Dilute Russell's Viper Venom Time to Control Ratio Measurement</nciodm:PreferredTerm>
                </EnumeratedItem>
                <EnumeratedItem CodedValue="DSG1AB" nciodm:ExtCodeID="C122114">
                    <nciodm:CDISCSynonym>Desmoglein 1 Antibody</nciodm:CDISCSynonym>
                    <nciodm:CDISCDefinition>A measurement of the desmoglein 1 antibody in a biological specimen.</nciodm:CDISCDefinition>
                    <nciodm:PreferredTerm>Desmoglein 1 Antibody Measurement</nciodm:PreferredTerm>
                </EnumeratedItem>
                <EnumeratedItem CodedValue="DSG3AB" nciodm:ExtCodeID="C122115">
                    <nciodm:CDISCSynonym>Desmoglein 3 Antibody</nciodm:CDISCSynonym>
                    <nciodm:CDISCDefinition>A measurement of the desmoglein 3 antibody in a biological specimen.</nciodm:CDISCDefinition>
                    <nciodm:PreferredTerm>Desmoglein 3 Antibody Measurement</nciodm:PreferredTerm>
                </EnumeratedItem>
                <EnumeratedItem CodedValue="DTPACLR" nciodm:ExtCodeID="C100441">
                    <nciodm:CDISCSynonym>DTPA Clearance</nciodm:CDISCSynonym>
                    <nciodm:CDISCDefinition>A measurement of the volume of serum or plasma that would be cleared of Diethylenetriamine pentaacetate (DTPA) by excretion of urine for a specified unit of time (e.g. one minute).</nciodm:CDISCDefinition>
                    <nciodm:PreferredTerm>Diethylene Triamine Pentaacetic Acid Clearance</nciodm:PreferredTerm>
                </EnumeratedItem>
                <EnumeratedItem CodedValue="EBCIGGAB" nciodm:ExtCodeID="C96600">
                    <nciodm:CDISCSynonym>Epstein-Barr Capsid IgG Antibody</nciodm:CDISCSynonym>
                    <nciodm:CDISCDefinition>A measurement of the Epstein-Barr capsid IgG antibody in a biological specimen.</nciodm:CDISCDefinition>
                    <nciodm:PreferredTerm>Epstein-Barr Capsid IgG Antibody Measurement</nciodm:PreferredTerm>
                </EnumeratedItem>
                <EnumeratedItem CodedValue="EBCIGMAB" nciodm:ExtCodeID="C96601">
                    <nciodm:CDISCSynonym>Epstein-Barr Capsid IgM Antibody</nciodm:CDISCSynonym>
                    <nciodm:CDISCDefinition>A measurement of the Epstein-Barr capsid IgM antibody in a biological specimen.</nciodm:CDISCDefinition>
                    <nciodm:PreferredTerm>Epstein-Barr Capsid IgM Antibody Measurement</nciodm:PreferredTerm>
                </EnumeratedItem>
                <EnumeratedItem CodedValue="EBEAG" nciodm:ExtCodeID="C96602">
                    <nciodm:CDISCSynonym>Epstein-Barr Early Antigen</nciodm:CDISCSynonym>
                    <nciodm:CDISCDefinition>A measurement of the Epstein-Barr early antigen in a biological specimen.</nciodm:CDISCDefinition>
                    <nciodm:PreferredTerm>Epstein-Barr Early Antigen Measurement</nciodm:PreferredTerm>
                </EnumeratedItem>
                <EnumeratedItem CodedValue="EBEDIGAB" nciodm:ExtCodeID="C122116">
                    <nciodm:CDISCSynonym>Epstein-Barr Early D Antigen IgG Ab</nciodm:CDISCSynonym>
                    <nciodm:CDISCDefinition>A measurement of the Epstein-Barr early diffuse antigen IgG antibody in a biological specimen.</nciodm:CDISCDefinition>
                    <nciodm:PreferredTerm>Epstein-Barr Early D Antigen IgG Antibody Measurement</nciodm:PreferredTerm>
                </EnumeratedItem>
                <EnumeratedItem CodedValue="EBN1IGAB" nciodm:ExtCodeID="C106518">
                    <nciodm:CDISCSynonym>Epstein-Barr Nuclear Antigen 1 IgG Ab</nciodm:CDISCSynonym>
                    <nciodm:CDISCDefinition>A measurement of the Epstein-Barr nuclear antigen 1 IgG antibody in a biological specimen.</nciodm:CDISCDefinition>
                    <nciodm:PreferredTerm>Epstein-Barr Nuclear Antigen 1 IgG Ab Measurement</nciodm:PreferredTerm>
                </EnumeratedItem>
                <EnumeratedItem CodedValue="EBNAB" nciodm:ExtCodeID="C96603">
                    <nciodm:CDISCSynonym>Epstein-Barr Nuclear Antibody</nciodm:CDISCSynonym>
                    <nciodm:CDISCSynonym>Epstein-Barr Nuclear Antigen Antibody</nciodm:CDISCSynonym>
                    <nciodm:CDISCDefinition>A measurement of the Epstein-Barr nuclear antibody in a biological specimen.</nciodm:CDISCDefinition>
                    <nciodm:PreferredTerm>Epstein-Barr Nuclear Antibody Measurement</nciodm:PreferredTerm>
                </EnumeratedItem>
                <EnumeratedItem CodedValue="EBNAG" nciodm:ExtCodeID="C96604">
                    <nciodm:CDISCSynonym>Epstein-Barr Nuclear Antigen</nciodm:CDISCSynonym>
                    <nciodm:CDISCDefinition>A measurement of the Epstein-Barr nuclear antigen in a biological specimen.</nciodm:CDISCDefinition>
                    <nciodm:PreferredTerm>Epstein-Barr Nuclear Antigen Measurement</nciodm:PreferredTerm>
                </EnumeratedItem>
                <EnumeratedItem CodedValue="EBVINTP" nciodm:ExtCodeID="C106519">
                    <nciodm:CDISCSynonym>EBV Profile Interpretation</nciodm:CDISCSynonym>
                    <nciodm:CDISCSynonym>Epstein-Barr Virus Antibody Profile</nciodm:CDISCSynonym>
                    <nciodm:CDISCSynonym>Epstein-Barr Virus Panel</nciodm:CDISCSynonym>
