<CodeList xmlns="http://www.cdisc.org/ns/odm/v1.3" xmlns:nciodm="http://ncicb.nci.nih.gov/xml/odm/EVS/CDISC" xmlns:xs="http://www.w3.org/2001/XMLSchema-instance" OID="CL.C127358.FAC023TC" Name="The Functional Assessment of Cancer Therapy-Prostate Version 4 Questionnaire Test Code" DataType="text" nciodm:ExtCodeID="C127358" nciodm:CodeListExtensible="No">
                <Description>
                    <TranslatedText xml:lang="en">The Functional Assessment of Cancer Therapy-Prostate Version 4 test code.</TranslatedText>
                </Description>
                <EnumeratedItem CodedValue="FAC02301" nciodm:ExtCodeID="C127465">
                    <nciodm:CDISCSynonym>FAC023-I Have a Lack of Energy</nciodm:CDISCSynonym>
                    <nciodm:CDISCDefinition>Functional Assessment of Cancer Therapy-Prostate Version 4 - Physical Well-Being: I have a lack of energy.</nciodm:CDISCDefinition>
                    <nciodm:PreferredTerm>FACT-P Version 4 - I Have a Lack of Energy</nciodm:PreferredTerm>
                </EnumeratedItem>
                <EnumeratedItem CodedValue="FAC02302" nciodm:ExtCodeID="C127466">
                    <nciodm:CDISCSynonym>FAC023-I Have Nausea</nciodm:CDISCSynonym>
                    <nciodm:CDISCDefinition>Functional Assessment of Cancer Therapy-Prostate Version 4 - Physical Well-Being: I have nausea.</nciodm:CDISCDefinition>
                    <nciodm:PreferredTerm>FACT-P Version 4 - I Have Nausea</nciodm:PreferredTerm>
                </EnumeratedItem>
                <EnumeratedItem CodedValue="FAC02303" nciodm:ExtCodeID="C127467">
                    <nciodm:CDISCSynonym>FAC023-Trouble Meeting Needs of Family</nciodm:CDISCSynonym>
                    <nciodm:CDISCDefinition>Functional Assessment of Cancer Therapy-Prostate Version 4 - Physical Well-Being: Because of my physical condition, I have trouble meeting the needs of my family.</nciodm:CDISCDefinition>
                    <nciodm:PreferredTerm>FACT-P Version 4 - Trouble Meeting Needs of Family</nciodm:PreferredTerm>
                </EnumeratedItem>
                <EnumeratedItem CodedValue="FAC02304" nciodm:ExtCodeID="C127468">
                    <nciodm:CDISCSynonym>FAC023-I Have Pain</nciodm:CDISCSynonym>
                    <nciodm:CDISCDefinition>Functional Assessment of Cancer Therapy-Prostate Version 4 - Physical Well-Being: I have pain.</nciodm:CDISCDefinition>
                    <nciodm:PreferredTerm>FACT-P Version 4 - I Have Pain</nciodm:PreferredTerm>
                </EnumeratedItem>
                <EnumeratedItem CodedValue="FAC02305" nciodm:ExtCodeID="C127469">
                    <nciodm:CDISCSynonym>FAC023-Bothered by Treatment Side Effect</nciodm:CDISCSynonym>
                    <nciodm:CDISCDefinition>Functional Assessment of Cancer Therapy-Prostate Version 4 - Physical Well-Being: I am bothered by side effects of treatment.</nciodm:CDISCDefinition>
                    <nciodm:PreferredTerm>FACT-P Version 4 - Bothered by Treatment Side Effect</nciodm:PreferredTerm>
                </EnumeratedItem>
                <EnumeratedItem CodedValue="FAC02306" nciodm:ExtCodeID="C127470">
                    <nciodm:CDISCSynonym>FAC023-I Feel Ill</nciodm:CDISCSynonym>
                    <nciodm:CDISCDefinition>Functional Assessment of Cancer Therapy-Prostate Version 4 - Physical Well-Being: I feel ill.</nciodm:CDISCDefinition>
                    <nciodm:PreferredTerm>FACT-P Version 4 - I Feel Ill</nciodm:PreferredTerm>
                </EnumeratedItem>
                <EnumeratedItem CodedValue="FAC02307" nciodm:ExtCodeID="C127471">
                    <nciodm:CDISCSynonym>FAC023-I Am Forced to Spend Time in Bed</nciodm:CDISCSynonym>
                    <nciodm:CDISCDefinition>Functional Assessment of Cancer Therapy-Prostate Version 4 - Physical Well-Being: I am forced to spend time in bed.</nciodm:CDISCDefinition>
                    <nciodm:PreferredTerm>FACT-P Version 4 - I Am Forced to Spend Time in Bed</nciodm:PreferredTerm>
                </EnumeratedItem>
                <EnumeratedItem CodedValue="FAC02308" nciodm:ExtCodeID="C127472">
                    <nciodm:CDISCSynonym>FAC023-I Feel Close to My Friends</nciodm:CDISCSynonym>
                    <nciodm:CDISCDefinition>Functional Assessment of Cancer Therapy-Prostate Version 4 - Social/Family Well-Being: I feel close to my friends.</nciodm:CDISCDefinition>
                    <nciodm:PreferredTerm>FACT-P Version 4 - I Feel Close to My Friends</nciodm:PreferredTerm>
                </EnumeratedItem>
                <EnumeratedItem CodedValue="FAC02309" nciodm:ExtCodeID="C127473">
                    <nciodm:CDISCSynonym>FAC023-Get Emotional Support From Family</nciodm:CDISCSynonym>
                    <nciodm:CDISCDefinition>Functional Assessment of Cancer Therapy-Prostate Version 4 - Social/Family Well-Being: I get emotional support from my family.</nciodm:CDISCDefinition>
                    <nciodm:PreferredTerm>FACT-P Version 4 - Get Emotional Support From Family</nciodm:PreferredTerm>
                </EnumeratedItem>
                <EnumeratedItem CodedValue="FAC02310" nciodm:ExtCodeID="C127474">
                    <nciodm:CDISCSynonym>FAC023-I Get Support From My Friends</nciodm:CDISCSynonym>
                    <nciodm:CDISCDefinition>Functional Assessment of Cancer Therapy-Prostate Version 4 - Social/Family Well-Being: I get support from my friends.</nciodm:CDISCDefinition>
                    <nciodm:PreferredTerm>FACT-P Version 4 - I Get Support From My Friends</nciodm:PreferredTerm>
                </EnumeratedItem>
                <EnumeratedItem CodedValue="FAC02311" nciodm:ExtCodeID="C127475">
                    <nciodm:CDISCSynonym>FAC023-My Family Has Accepted My Illness</nciodm:CDISCSynonym>
                    <nciodm:CDISCDefinition>Functional Assessment of Cancer Therapy-Prostate Version 4 - Social/Family Well-Being: My family has accepted my illness.</nciodm:CDISCDefinition>
                    <nciodm:PreferredTerm>FACT-P Version 4 - My Family Has Accepted My Illness</nciodm:PreferredTerm>
                </EnumeratedItem>
                <EnumeratedItem CodedValue="FAC02312" nciodm:ExtCodeID="C127476">
                    <nciodm:CDISCSynonym>FAC023-Satisfied Communication Illness</nciodm:CDISCSynonym>
                    <nciodm:CDISCDefinition>Functional Assessment of Cancer Therapy-Prostate Version 4 - Social/Family Well-Being: I am satisfied with family communication about my illness.</nciodm:CDISCDefinition>
                    <nciodm:PreferredTerm>FACT-P Version 4 - Satisfied With Family Communication</nciodm:PreferredTerm>
                </EnumeratedItem>
                <EnumeratedItem CodedValue="FAC02313" nciodm:ExtCodeID="C127477">
                    <nciodm:CDISCSynonym>FAC023-I Feel Close to My Partner</nciodm:CDISCSynonym>
                    <nciodm:CDISCDefinition>Functional Assessment of Cancer Therapy-Prostate Version 4 - Social/Family Well-Being: I feel close to my partner (or the person who is my main support).</nciodm:CDISCDefinition>
                    <nciodm:PreferredTerm>FACT-P Version 4 - I Feel Close to My Partner</nciodm:PreferredTerm>
                </EnumeratedItem>
                <EnumeratedItem CodedValue="FAC02314" nciodm:ExtCodeID="C127478">
                    <nciodm:CDISCSynonym>FAC023-I Am Satisfied With My Sex Life</nciodm:CDISCSynonym>
                    <nciodm:CDISCDefinition>Functional Assessment of Cancer Therapy-Prostate Version 4 - Social/Family Well-Being: I am satisfied with my sex life.</nciodm:CDISCDefinition>
                    <nciodm:PreferredTerm>FACT-P Version 4 - I Am Satisfied With My Sex Life</nciodm:PreferredTerm>
                </EnumeratedItem>
                <EnumeratedItem CodedValue="FAC02315" nciodm:ExtCodeID="C127479">
                    <nciodm:CDISCSynonym>FAC023-I Feel Sad</nciodm:CDISCSynonym>
                    <nciodm:CDISCDefinition>Functional Assessment of Cancer Therapy-Prostate Version 4 - Emotional Well-Being: I feel sad.</nciodm:CDISCDefinition>
                    <nciodm:PreferredTerm>FACT-P Version 4 - I Feel Sad</nciodm:PreferredTerm>
                </EnumeratedItem>
                <EnumeratedItem CodedValue="FAC02316" nciodm:ExtCodeID="C127480">
                    <nciodm:CDISCSynonym>FAC023-Satisfied With How I Am Coping</nciodm:CDISCSynonym>
                    <nciodm:CDISCDefinition>Functional Assessment of Cancer Therapy-Prostate Version 4 - Emotional Well-Being: I am satisfied with how I am coping with my illness.</nciodm:CDISCDefinition>
                    <nciodm:PreferredTerm>FACT-P Version 4 - Satisfied With How I Am Coping</nciodm:PreferredTerm>
                </EnumeratedItem>
                <EnumeratedItem CodedValue="FAC02317" nciodm:ExtCodeID="C127481">
                    <nciodm:CDISCSynonym>FAC023-Losing Hope Against Illness</nciodm:CDISCSynonym>
                    <nciodm:CDISCDefinition>Functional Assessment of Cancer Therapy-Prostate Version 4 - Emotional Well-Being: I am losing hope in the fight against my illness.</nciodm:CDISCDefinition>
                    <nciodm:PreferredTerm>FACT-P Version 4 - Losing Hope Against Illness</nciodm:PreferredTerm>
                </EnumeratedItem>
                <EnumeratedItem CodedValue="FAC02318" nciodm:ExtCodeID="C127482">
                    <nciodm:CDISCSynonym>FAC023-I Feel Nervous</nciodm:CDISCSynonym>
                    <nciodm:CDISCDefinition>Functional Assessment of Cancer Therapy-Prostate Version 4 - Emotional Well-Being: I feel nervous.</nciodm:CDISCDefinition>
                    <nciodm:PreferredTerm>FACT-P Version 4 - I Feel Nervous</nciodm:PreferredTerm>
                </EnumeratedItem>
                <EnumeratedItem CodedValue="FAC02319" nciodm:ExtCodeID="C127483">
                    <nciodm:CDISCSynonym>FAC023-I Worry About Dying</nciodm:CDISCSynonym>
                    <nciodm:CDISCDefinition>Functional Assessment of Cancer Therapy-Prostate Version 4 - Emotional Well-Being: I worry about dying.</nciodm:CDISCDefinition>
                    <nciodm:PreferredTerm>FACT-P Version 4 - I Worry About Dying</nciodm:PreferredTerm>
                </EnumeratedItem>
                <EnumeratedItem CodedValue="FAC02320" nciodm:ExtCodeID="C127484">
                    <nciodm:CDISCSynonym>FAC023-Worry My Condition Will Get Worse</nciodm:CDISCSynonym>
                    <nciodm:CDISCDefinition>Functional Assessment of Cancer Therapy-Prostate Version 4 - Emotional Well-Being: I worry that my condition will get worse.</nciodm:CDISCDefinition>
                    <nciodm:PreferredTerm>FACT-P Version 4 - Worry My Condition Will Get Worse</nciodm:PreferredTerm>
                </EnumeratedItem>
                <EnumeratedItem CodedValue="FAC02321" nciodm:ExtCodeID="C127485">
                    <nciodm:CDISCSynonym>FAC023-I Am Able to Work</nciodm:CDISCSynonym>
                    <nciodm:CDISCDefinition>Functional Assessment of Cancer Therapy-Prostate Version 4 - Functional Well-Being: I am able to work (include work at home).</nciodm:CDISCDefinition>
                    <nciodm:PreferredTerm>FACT-P Version 4 - I Am Able to Work</nciodm:PreferredTerm>
                </EnumeratedItem>
                <EnumeratedItem CodedValue="FAC02322" nciodm:ExtCodeID="C127486">
                    <nciodm:CDISCSynonym>FAC023-My Work Is Fulfilling</nciodm:CDISCSynonym>
                    <nciodm:CDISCDefinition>Functional Assessment of Cancer Therapy-Prostate Version 4 - Functional Well-Being: My work (include work at home) is fulfilling.</nciodm:CDISCDefinition>
                    <nciodm:PreferredTerm>FACT-P Version 4 - My Work Is Fulfilling</nciodm:PreferredTerm>
                </EnumeratedItem>
                <EnumeratedItem CodedValue="FAC02323" nciodm:ExtCodeID="C127487">
                    <nciodm:CDISCSynonym>FAC023-I Am Able to Enjoy Life</nciodm:CDISCSynonym>
                    <nciodm:CDISCDefinition>Functional Assessment of Cancer Therapy-Prostate Version 4 - Functional Well-Being: I am able to enjoy life.</nciodm:CDISCDefinition>
                    <nciodm:PreferredTerm>FACT-P Version 4 - I Am Able to Enjoy Life</nciodm:PreferredTerm>
                </EnumeratedItem>
                <EnumeratedItem CodedValue="FAC02324" nciodm:ExtCodeID="C127488">
                    <nciodm:CDISCSynonym>FAC023-I Have Accepted My Illness</nciodm:CDISCSynonym>
                    <nciodm:CDISCDefinition>Functional Assessment of Cancer Therapy-Prostate Version 4 - Functional Well-Being: I have accepted my illness.</nciodm:CDISCDefinition>
                    <nciodm:PreferredTerm>FACT-P Version 4 - I Have Accepted My Illness</nciodm:PreferredTerm>
                </EnumeratedItem>
                <EnumeratedItem CodedValue="FAC02325" nciodm:ExtCodeID="C127489">
                    <nciodm:CDISCSynonym>FAC023-I Am Sleeping Well</nciodm:CDISCSynonym>
                    <nciodm:CDISCDefinition>Functional Assessment of Cancer Therapy-Prostate Version 4 - Functional Well-Being: I am sleeping well.</nciodm:CDISCDefinition>
                    <nciodm:PreferredTerm>FACT-P Version 4 - I Am Sleeping Well</nciodm:PreferredTerm>
                </EnumeratedItem>
                <EnumeratedItem CodedValue="FAC02326" nciodm:ExtCodeID="C127490">
                    <nciodm:CDISCSynonym>FAC023-Enjoy Things I Usually Do for Fun</nciodm:CDISCSynonym>
                    <nciodm:CDISCDefinition>Functional Assessment of Cancer Therapy-Prostate Version 4 - Functional Well-Being: I am enjoying the things I usually do for fun.</nciodm:CDISCDefinition>
                    <nciodm:PreferredTerm>FACT-P Version 4 - Enjoy Things I Usually Do for Fun</nciodm:PreferredTerm>
                </EnumeratedItem>
                <EnumeratedItem CodedValue="FAC02327" nciodm:ExtCodeID="C127491">
                    <nciodm:CDISCSynonym>FAC023-Content With Quality of My Life</nciodm:CDISCSynonym>
                    <nciodm:CDISCDefinition>Functional Assessment of Cancer Therapy-Prostate Version 4 - Functional Well-Being: I am content with the quality of my life right now.</nciodm:CDISCDefinition>
                    <nciodm:PreferredTerm>FACT-P Version 4 - Content With Quality of My Life</nciodm:PreferredTerm>
                </EnumeratedItem>
                <EnumeratedItem CodedValue="FAC02328" nciodm:ExtCodeID="C127492">
                    <nciodm:CDISCSynonym>FAC023-I Am Losing Weight</nciodm:CDISCSynonym>
                    <nciodm:CDISCDefinition>Functional Assessment of Cancer Therapy-Prostate Version 4 - Additional Concerns: I am losing weight.</nciodm:CDISCDefinition>
                    <nciodm:PreferredTerm>FACT-P Version 4 - I Am Losing Weight</nciodm:PreferredTerm>
                </EnumeratedItem>
                <EnumeratedItem CodedValue="FAC02329" nciodm:ExtCodeID="C127493">
                    <nciodm:CDISCSynonym>FAC023-I Have a Good Appetite</nciodm:CDISCSynonym>
                    <nciodm:CDISCDefinition>Functional Assessment of Cancer Therapy-Prostate Version 4 - Additional Concerns: I have a good appetite.</nciodm:CDISCDefinition>
                    <nciodm:PreferredTerm>FACT-P Version 4 - I Have a Good Appetite</nciodm:PreferredTerm>
                </EnumeratedItem>
                <EnumeratedItem CodedValue="FAC02330" nciodm:ExtCodeID="C127494">
                    <nciodm:CDISCSynonym>FAC023-Have Aches/Pains That Bother Me</nciodm:CDISCSynonym>
                    <nciodm:CDISCDefinition>Functional Assessment of Cancer Therapy-Prostate Version 4 - Additional Concerns: I have aches and pains that bother me.</nciodm:CDISCDefinition>
                    <nciodm:PreferredTerm>FACT-P Version 4 - Have Aches and Pains That Bother Me</nciodm:PreferredTerm>
                </EnumeratedItem>
                <EnumeratedItem CodedValue="FAC02331" nciodm:ExtCodeID="C127495">
                    <nciodm:CDISCSynonym>FAC023-Certain Parts of Body Have Pain</nciodm:CDISCSynonym>
                    <nciodm:CDISCDefinition>Functional Assessment of Cancer Therapy-Prostate Version 4 - Additional Concerns: I have certain parts of my body where I experience pain.</nciodm:CDISCDefinition>
                    <nciodm:PreferredTerm>FACT-P Version 4 - Certain Parts of Body Experience Pain</nciodm:PreferredTerm>
                </EnumeratedItem>
                <EnumeratedItem CodedValue="FAC02332" nciodm:ExtCodeID="C127496">
                    <nciodm:CDISCSynonym>FAC023-Pain Keeps Me From Doing Things</nciodm:CDISCSynonym>
                    <nciodm:CDISCDefinition>Functional Assessment of Cancer Therapy-Prostate Version 4 - Additional Concerns: My pain keeps me from doing things I want to do.</nciodm:CDISCDefinition>
                    <nciodm:PreferredTerm>FACT-P Version 4 - Pain Keeps Me From Doing Things</nciodm:PreferredTerm>
                </EnumeratedItem>
                <EnumeratedItem CodedValue="FAC02333" nciodm:ExtCodeID="C127497">
                    <nciodm:CDISCSynonym>FAC023-Satisfied With Comfort Level</nciodm:CDISCSynonym>
                    <nciodm:CDISCDefinition>Functional Assessment of Cancer Therapy-Prostate Version 4 - Additional Concerns: I am satisfied with my present comfort level.</nciodm:CDISCDefinition>
                    <nciodm:PreferredTerm>FACT-P Version 4 - Satisfied With Comfort Level</nciodm:PreferredTerm>
                </EnumeratedItem>
                <EnumeratedItem CodedValue="FAC02334" nciodm:ExtCodeID="C127498">
                    <nciodm:CDISCSynonym>FAC023-I Am Able to Feel Like a Man</nciodm:CDISCSynonym>
                    <nciodm:CDISCDefinition>Functional Assessment of Cancer Therapy-Prostate Version 4 - Additional Concerns: I am able to feel like a man.</nciodm:CDISCDefinition>
                    <nciodm:PreferredTerm>FACT-P Version 4 - I Am Able to Feel Like a Man</nciodm:PreferredTerm>
                </EnumeratedItem>
                <EnumeratedItem CodedValue="FAC02335" nciodm:ExtCodeID="C127499">
                    <nciodm:CDISCSynonym>FAC023-I Have Trouble Moving My Bowels</nciodm:CDISCSynonym>
                    <nciodm:CDISCDefinition>Functional Assessment of Cancer Therapy-Prostate Version 4 - Additional Concerns: I have trouble moving my bowels.</nciodm:CDISCDefinition>
                    <nciodm:PreferredTerm>FACT-P Version 4 - I Have Trouble Moving My Bowels</nciodm:PreferredTerm>
                </EnumeratedItem>
                <EnumeratedItem CodedValue="FAC02336" nciodm:ExtCodeID="C127500">
                    <nciodm:CDISCSynonym>FAC023-I Have Difficulty Urinating</nciodm:CDISCSynonym>
                    <nciodm:CDISCDefinition>Functional Assessment of Cancer Therapy-Prostate Version 4 - Additional Concerns: I have difficulty urinating.</nciodm:CDISCDefinition>
                    <nciodm:PreferredTerm>FACT-P Version 4 - I Have Difficulty Urinating</nciodm:PreferredTerm>
                </EnumeratedItem>
                <EnumeratedItem CodedValue="FAC02337" nciodm:ExtCodeID="C127501">
                    <nciodm:CDISCSynonym>FAC023-I Urinate More Frequently</nciodm:CDISCSynonym>
                    <nciodm:CDISCDefinition>Functional Assessment of Cancer Therapy-Prostate Version 4 - Additional Concerns: I urinate more frequently than usual.</nciodm:CDISCDefinition>
                    <nciodm:PreferredTerm>FACT-P Version 4 - I Urinate More Frequently</nciodm:PreferredTerm>
                </EnumeratedItem>
                <EnumeratedItem CodedValue="FAC02338" nciodm:ExtCodeID="C127502">
                    <nciodm:CDISCSynonym>FAC023-Problem Urinating Limits Activity</nciodm:CDISCSynonym>
                    <nciodm:CDISCDefinition>Functional Assessment of Cancer Therapy-Prostate Version 4 - Additional Concerns: My problems with urinating limit my activities.</nciodm:CDISCDefinition>
                    <nciodm:PreferredTerm>FACT-P Version 4 - Problem Urinating Limits Activity</nciodm:PreferredTerm>
                </EnumeratedItem>
                <EnumeratedItem CodedValue="FAC02339" nciodm:ExtCodeID="C127503">
                    <nciodm:CDISCSynonym>FAC023-Able to Have/Maintain Erection</nciodm:CDISCSynonym>
                    <nciodm:CDISCDefinition>Functional Assessment of Cancer Therapy-Prostate Version 4 - Additional Concerns: I am able to have and maintain an erection.</nciodm:CDISCDefinition>
                    <nciodm:PreferredTerm>FACT-P Version 4 - Able to Have and Maintain an Erection</nciodm:PreferredTerm>
                </EnumeratedItem>
                <nciodm:CDISCSubmissionValue>FAC023TC</nciodm:CDISCSubmissionValue>
                <nciodm:CDISCSynonym>The Functional Assessment of Cancer Therapy-Prostate Version 4 Questionnaire Test Code</nciodm:CDISCSynonym>
                <nciodm:PreferredTerm>CDISC Questionnaire FACT-P Version 4 Test Code Terminology</nciodm:PreferredTerm>
            </CodeList>
            
