<CodeList xmlns="http://www.cdisc.org/ns/odm/v1.3" xmlns:nciodm="http://ncicb.nci.nih.gov/xml/odm/EVS/CDISC" xmlns:xs="http://www.w3.org/2001/XMLSchema-instance" OID="CL.C127270.MUSCTS" Name="Musculoskeletal System Finding Test Name" DataType="text" nciodm:ExtCodeID="C127270" nciodm:CodeListExtensible="Yes">
                <Description>
                    <TranslatedText xml:lang="en">A terminology codelist to describe the test name for a physiological examination of the musculoskeletal system.</TranslatedText>
                </Description>
                <EnumeratedItem CodedValue="Sharp/Genant Bone Erosion Score" nciodm:ExtCodeID="C128986">
                    <nciodm:CDISCDefinition>The numerical value that represents the result of a clinical assessment of bone erosion based on the Genant modification of the Sharp Joint Erosion Assessment (Genant HK. Methods of assessing radiographic change in rheumatoid arthritis. Am J Med. 1983 Dec 30;75(6A):35-47).</nciodm:CDISCDefinition>
                    <nciodm:PreferredTerm>Sharp Genant Bone Erosion Score</nciodm:PreferredTerm>
                </EnumeratedItem>
                <EnumeratedItem CodedValue="Sharp/Genant JSN Score" nciodm:ExtCodeID="C128987">
                    <nciodm:CDISCDefinition>The numerical value that represents the result of a clinical assessment of joint space narrowing based on the Genant modification of the Sharp Joint Space Narrowing Assessment (Genant HK. Methods of assessing radiographic change in rheumatoid arthritis. Am J Med. 1983 Dec 30;75(6A):35-47).</nciodm:CDISCDefinition>
                    <nciodm:PreferredTerm>Sharp Genant Joint Space Narrowing Score</nciodm:PreferredTerm>
                </EnumeratedItem>
                <EnumeratedItem CodedValue="Sharp/Van der Heijde Bone Erosion Score" nciodm:ExtCodeID="C128988">
                    <nciodm:CDISCDefinition>The numerical value that represents the result of a clinical assessment of bone erosion based on the Van der Heijde modification of the Sharp Joint Erosion Assessment (Van der Heijde DM, van Riel PL, Nuver-Zwart IH, Gribnau FW, van de Putte LB. Effects of hydroxychloroquine and sulphasalazine on progression of joint damage in rheumatoid arthritis. Lancet 1989;1:1036-8).</nciodm:CDISCDefinition>
                    <nciodm:PreferredTerm>Sharp van der Heijde Bone Erosion Score</nciodm:PreferredTerm>
                </EnumeratedItem>
                <EnumeratedItem CodedValue="Sharp/Van der Heijde JSN Score" nciodm:ExtCodeID="C128989">
                    <nciodm:CDISCDefinition>The numerical value that represents the result of a clinical assessment of joint space narrowing based on the Van der Heijde modification of the Sharp Joint Space Narrowing Assessment (Van der Heijde DM, van Riel PL, Nuver-Zwart IH, Gribnau FW, van de Putte LB. Effects of hydroxychloroquine and sulphasalazine on progression of joint damage in rheumatoid arthritis. Lancet 1989;1:1036-8).</nciodm:CDISCDefinition>
                    <nciodm:PreferredTerm>Sharp van der Heijde Joint Space Narrowing Score</nciodm:PreferredTerm>
                </EnumeratedItem>
                <EnumeratedItem CodedValue="Swollen Indicator" nciodm:ExtCodeID="C127774">
                    <nciodm:CDISCSynonym>Swollen Indicator</nciodm:CDISCSynonym>
                    <nciodm:CDISCDefinition>An indication as to whether there are symptoms of swelling.</nciodm:CDISCDefinition>
                    <nciodm:PreferredTerm>Swollen Indicator</nciodm:PreferredTerm>
                </EnumeratedItem>
                <EnumeratedItem CodedValue="Tenderness Indicator" nciodm:ExtCodeID="C127775">
                    <nciodm:CDISCSynonym>Tenderness Indicator</nciodm:CDISCSynonym>
                    <nciodm:CDISCDefinition>An indication as to whether there are symptoms of tenderness.</nciodm:CDISCDefinition>
                    <nciodm:PreferredTerm>Tenderness Indicator</nciodm:PreferredTerm>
                </EnumeratedItem>
                <nciodm:CDISCSubmissionValue>MUSCTS</nciodm:CDISCSubmissionValue>
                <nciodm:CDISCSynonym>Musculoskeletal System Finding Test Name</nciodm:CDISCSynonym>
                <nciodm:PreferredTerm>CDISC SDTM Musculoskeletal System Finding Test Name Terminology</nciodm:PreferredTerm>
            </CodeList>
            
