<CodeList xmlns="http://www.cdisc.org/ns/odm/v1.3" xmlns:nciodm="http://ncicb.nci.nih.gov/xml/odm/EVS/CDISC" xmlns:xs="http://www.w3.org/2001/XMLSchema-instance" OID="CL.C101828.SOWSA1TC" Name="Subjective Opiate Withdrawal Scale Questionnaire Test Code" DataType="text" nciodm:ExtCodeID="C101828" nciodm:CodeListExtensible="No">
                <Description>
                    <TranslatedText xml:lang="en">Subjective Opiate Withdrawal Scale test code.</TranslatedText>
                </Description>
                <EnumeratedItem CodedValue="SOWSA101" nciodm:ExtCodeID="C102409">
                    <nciodm:CDISCSynonym>SOWSA1-I Feel Anxious</nciodm:CDISCSynonym>
                    <nciodm:CDISCDefinition>Subjective Opiate Withdrawal Scale - I feel anxious.</nciodm:CDISCDefinition>
                    <nciodm:PreferredTerm>SOWS Subjective (Handelsman) - I Feel Anxious</nciodm:PreferredTerm>
                </EnumeratedItem>
                <EnumeratedItem CodedValue="SOWSA102" nciodm:ExtCodeID="C102410">
                    <nciodm:CDISCSynonym>SOWSA1-I Feel Like Yawning</nciodm:CDISCSynonym>
                    <nciodm:CDISCDefinition>Subjective Opiate Withdrawal Scale - I feel like yawning.</nciodm:CDISCDefinition>
                    <nciodm:PreferredTerm>SOWS Subjective (Handelsman) - I Feel Like Yawning</nciodm:PreferredTerm>
                </EnumeratedItem>
                <EnumeratedItem CodedValue="SOWSA103" nciodm:ExtCodeID="C102411">
                    <nciodm:CDISCSynonym>SOWSA1-I'm Perspiring</nciodm:CDISCSynonym>
                    <nciodm:CDISCDefinition>Subjective Opiate Withdrawal Scale - I'm perspiring.</nciodm:CDISCDefinition>
                    <nciodm:PreferredTerm>SOWS Subjective (Handelsman) - I'm Perspiring</nciodm:PreferredTerm>
                </EnumeratedItem>
                <EnumeratedItem CodedValue="SOWSA104" nciodm:ExtCodeID="C102412">
                    <nciodm:CDISCSynonym>SOWSA1-My Eyes Are Tearing</nciodm:CDISCSynonym>
                    <nciodm:CDISCDefinition>Subjective Opiate Withdrawal Scale - My eyes are tearing.</nciodm:CDISCDefinition>
                    <nciodm:PreferredTerm>SOWS Subjective (Handelsman) - My Eyes Are Tearing</nciodm:PreferredTerm>
                </EnumeratedItem>
                <EnumeratedItem CodedValue="SOWSA105" nciodm:ExtCodeID="C102413">
                    <nciodm:CDISCSynonym>SOWSA1-My Nose is Running</nciodm:CDISCSynonym>
                    <nciodm:CDISCDefinition>Subjective Opiate Withdrawal Scale - My nose is running.</nciodm:CDISCDefinition>
                    <nciodm:PreferredTerm>SOWS Subjective (Handelsman) - My Nose is Running</nciodm:PreferredTerm>
                </EnumeratedItem>
                <EnumeratedItem CodedValue="SOWSA106" nciodm:ExtCodeID="C102414">
                    <nciodm:CDISCSynonym>SOWSA1-I Have Goose Flesh</nciodm:CDISCSynonym>
                    <nciodm:CDISCDefinition>Subjective Opiate Withdrawal Scale - I have goose flesh.</nciodm:CDISCDefinition>
                    <nciodm:PreferredTerm>SOWS Subjective (Handelsman) - I Have Goose Flesh</nciodm:PreferredTerm>
                </EnumeratedItem>
                <EnumeratedItem CodedValue="SOWSA107" nciodm:ExtCodeID="C102415">
                    <nciodm:CDISCSynonym>SOWSA1-I Am Shaking</nciodm:CDISCSynonym>
                    <nciodm:CDISCDefinition>Subjective Opiate Withdrawal Scale - I am shaking.</nciodm:CDISCDefinition>
                    <nciodm:PreferredTerm>SOWS Subjective (Handelsman) - I Am Shaking</nciodm:PreferredTerm>
                </EnumeratedItem>
                <EnumeratedItem CodedValue="SOWSA108" nciodm:ExtCodeID="C102416">
                    <nciodm:CDISCSynonym>SOWSA1-I Have Hot Flashes</nciodm:CDISCSynonym>
                    <nciodm:CDISCDefinition>Subjective Opiate Withdrawal Scale - I have hot flashes.</nciodm:CDISCDefinition>
                    <nciodm:PreferredTerm>SOWS Subjective (Handelsman) - I Have Hot Flashes</nciodm:PreferredTerm>
                </EnumeratedItem>
                <EnumeratedItem CodedValue="SOWSA109" nciodm:ExtCodeID="C102417">
                    <nciodm:CDISCSynonym>SOWSA1-I Have Cold Flashes</nciodm:CDISCSynonym>
                    <nciodm:CDISCDefinition>Subjective Opiate Withdrawal Scale - I have cold flashes.</nciodm:CDISCDefinition>
                    <nciodm:PreferredTerm>SOWS Subjective (Handelsman) - I Have Cold Flashes</nciodm:PreferredTerm>
                </EnumeratedItem>
                <EnumeratedItem CodedValue="SOWSA110" nciodm:ExtCodeID="C102418">
                    <nciodm:CDISCSynonym>SOWSA1-My Bones and Muscles Ache</nciodm:CDISCSynonym>
                    <nciodm:CDISCDefinition>Subjective Opiate Withdrawal Scale - My bones and muscles ache.</nciodm:CDISCDefinition>
                    <nciodm:PreferredTerm>SOWS Subjective (Handelsman) - My Bones and Muscles Ache</nciodm:PreferredTerm>
                </EnumeratedItem>
                <EnumeratedItem CodedValue="SOWSA111" nciodm:ExtCodeID="C102419">
                    <nciodm:CDISCSynonym>SOWSA1-I Feel Restless</nciodm:CDISCSynonym>
                    <nciodm:CDISCDefinition>Subjective Opiate Withdrawal Scale - I feel restless.</nciodm:CDISCDefinition>
                    <nciodm:PreferredTerm>SOWS Subjective (Handelsman) - I Feel Restless</nciodm:PreferredTerm>
                </EnumeratedItem>
                <EnumeratedItem CodedValue="SOWSA112" nciodm:ExtCodeID="C102420">
                    <nciodm:CDISCSynonym>SOWSA1-I Feel Nauseous</nciodm:CDISCSynonym>
                    <nciodm:CDISCDefinition>Subjective Opiate Withdrawal Scale - I feel nauseous.</nciodm:CDISCDefinition>
                    <nciodm:PreferredTerm>SOWS Subjective (Handelsman) - I Feel Nauseous</nciodm:PreferredTerm>
                </EnumeratedItem>
                <EnumeratedItem CodedValue="SOWSA113" nciodm:ExtCodeID="C102421">
                    <nciodm:CDISCSynonym>SOWSA1-I Feel Like Vomiting</nciodm:CDISCSynonym>
                    <nciodm:CDISCDefinition>Subjective Opiate Withdrawal Scale - I feel like vomiting.</nciodm:CDISCDefinition>
                    <nciodm:PreferredTerm>SOWS Subjective (Handelsman) - I Feel Like Vomiting</nciodm:PreferredTerm>
                </EnumeratedItem>
                <EnumeratedItem CodedValue="SOWSA114" nciodm:ExtCodeID="C102422">
                    <nciodm:CDISCSynonym>SOWSA1-My Muscles Twitch</nciodm:CDISCSynonym>
                    <nciodm:CDISCDefinition>Subjective Opiate Withdrawal Scale - My muscles twitch.</nciodm:CDISCDefinition>
                    <nciodm:PreferredTerm>SOWS Subjective (Handelsman) - My Muscles Twitch</nciodm:PreferredTerm>
                </EnumeratedItem>
                <EnumeratedItem CodedValue="SOWSA115" nciodm:ExtCodeID="C102423">
                    <nciodm:CDISCSynonym>SOWSA1-I Have Cramps in My Stomach</nciodm:CDISCSynonym>
                    <nciodm:CDISCDefinition>Subjective Opiate Withdrawal Scale - I have cramps in my stomach.</nciodm:CDISCDefinition>
                    <nciodm:PreferredTerm>SOWS Subjective (Handelsman) - I Have Cramps in My Stomach</nciodm:PreferredTerm>
                </EnumeratedItem>
                <EnumeratedItem CodedValue="SOWSA116" nciodm:ExtCodeID="C102424">
                    <nciodm:CDISCSynonym>SOWSA1-I Feel Like Shooting Up Now</nciodm:CDISCSynonym>
                    <nciodm:CDISCDefinition>Subjective Opiate Withdrawal Scale - I feel like shooting up now.</nciodm:CDISCDefinition>
                    <nciodm:PreferredTerm>SOWS Subjective (Handelsman) - I Feel Like Shooting Up Now</nciodm:PreferredTerm>
                </EnumeratedItem>
                <nciodm:CDISCSubmissionValue>SOWSA1TC</nciodm:CDISCSubmissionValue>
                <nciodm:CDISCSynonym>Subjective Opiate Withdrawal Scale Questionnaire Test Code</nciodm:CDISCSynonym>
                <nciodm:PreferredTerm>CDISC Questionnaire SOWS Subjective Test Code Terminology</nciodm:PreferredTerm>
            </CodeList>
            
