<CodeList xmlns="http://www.cdisc.org/ns/odm/v1.3" xmlns:nciodm="http://ncicb.nci.nih.gov/xml/odm/EVS/CDISC" xmlns:xs="http://www.w3.org/2001/XMLSchema-instance" OID="CL.C119079.ARC STC GRADE TEST" Name="Stent Thrombosis Coronary ARC Grade Clinical Classification Test Name" DataType="text" nciodm:ExtCodeID="C119079" nciodm:CodeListExtensible="No">
                <Description>
                    <TranslatedText xml:lang="en">Stent Thrombosis Coronary ARC Grade test name.</TranslatedText>
                </Description>
                <EnumeratedItem CodedValue="STCG01-STC ARC Grade" nciodm:ExtCodeID="C119198">
                    <nciodm:CDISCSynonym>STCG01-STC ARC Grade</nciodm:CDISCSynonym>
                    <nciodm:CDISCDefinition>Stent Thrombosis Coronary ARC Grade - A grading system to describe the coronary stent thrombosis per the classification schema described by the Academic Research Consortium.</nciodm:CDISCDefinition>
                    <nciodm:PreferredTerm>ARC STC Grade - Stent Thrombosis Coronary ARC Grade</nciodm:PreferredTerm>
                </EnumeratedItem>
                <nciodm:CDISCSubmissionValue>ARC STC GRADE TEST</nciodm:CDISCSubmissionValue>
                <nciodm:CDISCSynonym>Stent Thrombosis Coronary ARC Grade Clinical Classification Test Name</nciodm:CDISCSynonym>
                <nciodm:PreferredTerm>CDISC Clinical Classification ARC STC Grade Test Name Terminology</nciodm:PreferredTerm>
            </CodeList>
            
