<CodeList xmlns="http://www.cdisc.org/ns/odm/v1.3" xmlns:nciodm="http://ncicb.nci.nih.gov/xml/odm/EVS/CDISC" xmlns:xs="http://www.w3.org/2001/XMLSchema-instance" OID="CL.C124299.BSTEST" Name="Biospecimen Characteristics Test Name" DataType="text" nciodm:ExtCodeID="C124299" nciodm:CodeListExtensible="Yes">
                <Description>
                    <TranslatedText xml:lang="en">Terminology relevant to the test names that describe the characteristics of biospecimens and extracted samples.</TranslatedText>
                </Description>
                <EnumeratedItem CodedValue="RNA Integrity Number" nciodm:ExtCodeID="C63637">
                    <nciodm:CDISCSynonym>RNA Integrity Number</nciodm:CDISCSynonym>
                    <nciodm:CDISCDefinition>A numerical assessment of the integrity of RNA based on the entire electrophoretic trace of the RNA sample, including the presence or absence of degradation products. (NCI)</nciodm:CDISCDefinition>
                    <nciodm:PreferredTerm>RNA Integrity Number</nciodm:PreferredTerm>
                </EnumeratedItem>
                <EnumeratedItem CodedValue="Temperature" nciodm:ExtCodeID="C25206">
                    <nciodm:CDISCSynonym>Temperature</nciodm:CDISCSynonym>
                    <nciodm:CDISCDefinition>The property of a body or region of space that determines whether or not there will be a net flow of heat into it or out of it from a neighboring body or region and in which direction (if any) the heat will flow, perceptible by living organism as a somatic sensation of cold or heat. It is a measure of the average translational kinetic energy associated with the disordered microscopic motion of atoms and molecules. Temperature is measured in one of the three standard temperature scales: Celsius, Kelvin, and Fahrenheit. (NCI)</nciodm:CDISCDefinition>
                    <nciodm:PreferredTerm>Temperature</nciodm:PreferredTerm>
                </EnumeratedItem>
                <EnumeratedItem CodedValue="Volume" nciodm:ExtCodeID="C25335">
                    <nciodm:CDISCSynonym>Volume</nciodm:CDISCSynonym>
                    <nciodm:CDISCDefinition>The amount of three dimensional space occupied by an object or the capacity of a space or container. (NCI)</nciodm:CDISCDefinition>
                    <nciodm:PreferredTerm>Volume</nciodm:PreferredTerm>
                </EnumeratedItem>
                <nciodm:CDISCSubmissionValue>BSTEST</nciodm:CDISCSubmissionValue>
                <nciodm:CDISCSynonym>Biospecimen Characteristics Test Name</nciodm:CDISCSynonym>
                <nciodm:PreferredTerm>CDISC SDTM Biospecimen Characteristics Test Name Terminology</nciodm:PreferredTerm>
            </CodeList>
            
