<CodeList xmlns="http://www.cdisc.org/ns/odm/v1.3" xmlns:nciodm="http://ncicb.nci.nih.gov/xml/odm/EVS/CDISC" xmlns:xs="http://www.w3.org/2001/XMLSchema-instance" OID="CL.C125743.ASEX02TC" Name="Arizona Sexual Experiences Scale - Male Questionnaire Test Code" DataType="text" nciodm:ExtCodeID="C125743" nciodm:CodeListExtensible="No">
                <Description>
                    <TranslatedText xml:lang="en">Arizona Sexual Experiences Scale - Male test code.</TranslatedText>
                </Description>
                <EnumeratedItem CodedValue="ASEX0201" nciodm:ExtCodeID="C125768">
                    <nciodm:CDISCSynonym>ASEX02-Sex Drive</nciodm:CDISCSynonym>
                    <nciodm:CDISCDefinition>Arizona Sexual Experiences Scale Male - How strong is your sex drive?</nciodm:CDISCDefinition>
                    <nciodm:PreferredTerm>ASEX-Male Version - Sex Drive</nciodm:PreferredTerm>
                </EnumeratedItem>
                <EnumeratedItem CodedValue="ASEX0202" nciodm:ExtCodeID="C125769">
                    <nciodm:CDISCSynonym>ASEX02-Sexually Aroused</nciodm:CDISCSynonym>
                    <nciodm:CDISCDefinition>Arizona Sexual Experiences Scale Male - How easily are you sexually aroused (turned on)?</nciodm:CDISCDefinition>
                    <nciodm:PreferredTerm>ASEX-Male Version - Sexually Aroused</nciodm:PreferredTerm>
                </EnumeratedItem>
                <EnumeratedItem CodedValue="ASEX0203" nciodm:ExtCodeID="C125770">
                    <nciodm:CDISCSynonym>ASEX02-Keep Erection</nciodm:CDISCSynonym>
                    <nciodm:CDISCDefinition>Arizona Sexual Experiences Scale Male - Can you easily get and keep an erection?</nciodm:CDISCDefinition>
                    <nciodm:PreferredTerm>ASEX-Male Version - Keep Erection</nciodm:PreferredTerm>
                </EnumeratedItem>
                <EnumeratedItem CodedValue="ASEX0204" nciodm:ExtCodeID="C125771">
                    <nciodm:CDISCSynonym>ASEX02-Reach Orgasm</nciodm:CDISCSynonym>
                    <nciodm:CDISCDefinition>Arizona Sexual Experiences Scale Male - How easily can you reach an orgasm?</nciodm:CDISCDefinition>
                    <nciodm:PreferredTerm>ASEX-Male Version - Reach Orgasm</nciodm:PreferredTerm>
                </EnumeratedItem>
                <EnumeratedItem CodedValue="ASEX0205" nciodm:ExtCodeID="C125772">
                    <nciodm:CDISCSynonym>ASEX02-Orgasms Satisfying</nciodm:CDISCSynonym>
                    <nciodm:CDISCDefinition>Arizona Sexual Experiences Scale Male - Are your orgasms satisfying?</nciodm:CDISCDefinition>
                    <nciodm:PreferredTerm>ASEX-Male Version - Orgasms Satisfying</nciodm:PreferredTerm>
                </EnumeratedItem>
                <EnumeratedItem CodedValue="ASEX0206" nciodm:ExtCodeID="C129256">
                    <nciodm:CDISCSynonym>ASEX02-Comments</nciodm:CDISCSynonym>
                    <nciodm:CDISCDefinition>Arizona Sexual Experiences Scale Male - Comments.</nciodm:CDISCDefinition>
                    <nciodm:PreferredTerm>ASEX-Male Version - Comments</nciodm:PreferredTerm>
                </EnumeratedItem>
                <nciodm:CDISCSubmissionValue>ASEX02TC</nciodm:CDISCSubmissionValue>
                <nciodm:CDISCSynonym>Arizona Sexual Experiences Scale - Male Questionnaire Test Code</nciodm:CDISCSynonym>
                <nciodm:PreferredTerm>CDISC Questionnaire ASEX-Male Version Test Code Terminology</nciodm:PreferredTerm>
            </CodeList>
            
