<CodeList xmlns="http://www.cdisc.org/ns/odm/v1.3" xmlns:nciodm="http://ncicb.nci.nih.gov/xml/odm/EVS/CDISC" xmlns:xs="http://www.w3.org/2001/XMLSchema-instance" OID="CL.C66739.TTYPE" Name="Trial Type Response" DataType="text" nciodm:ExtCodeID="C66739" nciodm:CodeListExtensible="Yes">
                <Description>
                    <TranslatedText xml:lang="en">A terminology codelist relevant to the type of primary outcome or endpoint that the protocol is designed to evaluate.</TranslatedText>
                </Description>
                <EnumeratedItem CodedValue="BIO-AVAILABILITY" nciodm:ExtCodeID="C49664">
                    <nciodm:CDISCDefinition>A study of the degree to which or rate at which a drug or other substance is absorbed or becomes available at the site of physiological activity after administration. (NCI)</nciodm:CDISCDefinition>
                    <nciodm:PreferredTerm>Bioavailability Study</nciodm:PreferredTerm>
                </EnumeratedItem>
                <EnumeratedItem CodedValue="BIO-EQUIVALENCE" nciodm:ExtCodeID="C49665">
                    <nciodm:CDISCDefinition>A study most often used to compare the efficacy of different formulations to treat a given disease. It is the testing of an old versus a new formulation in healthy volunteers or subjects with the disease under study and usually in one dose. (NCI)</nciodm:CDISCDefinition>
                    <nciodm:PreferredTerm>Therapeutic Equivalency Study</nciodm:PreferredTerm>
                </EnumeratedItem>
                <EnumeratedItem CodedValue="DIAGNOSIS" nciodm:ExtCodeID="C49653">
                    <nciodm:CDISCDefinition>A type of study protocol designed to evaluate intervention(s) aimed at identifying a disease or condition. (NCI)</nciodm:CDISCDefinition>
                    <nciodm:PreferredTerm>Diagnosis Study</nciodm:PreferredTerm>
                </EnumeratedItem>
                <EnumeratedItem CodedValue="DOSE RESPONSE" nciodm:ExtCodeID="C127803">
                    <nciodm:CDISCDefinition>A study of the effect of dose changes on the efficacy of a drug in order to determine the dose-response relationship and optimal dose of a therapy.</nciodm:CDISCDefinition>
                    <nciodm:PreferredTerm>Dose Response Study</nciodm:PreferredTerm>
                </EnumeratedItem>
                <EnumeratedItem CodedValue="EFFICACY" nciodm:ExtCodeID="C49666">
                    <nciodm:CDISCDefinition>A study of the relative therapeutic efficacy of treatment of a disease. Usually this is a Phase II or III study. (NCI)</nciodm:CDISCDefinition>
                    <nciodm:PreferredTerm>Efficacy Study</nciodm:PreferredTerm>
                </EnumeratedItem>
                <EnumeratedItem CodedValue="FOOD EFFECT" nciodm:ExtCodeID="C98729">
                    <nciodm:CDISCDefinition>Studies that are conducted to assess the effect of food on the rate and extent of absorption of a drug, either compared to a fasted state or to a reference drug.</nciodm:CDISCDefinition>
                    <nciodm:PreferredTerm>Food Effect Study</nciodm:PreferredTerm>
                </EnumeratedItem>
                <EnumeratedItem CodedValue="IMMUNOGENICITY" nciodm:ExtCodeID="C120842">
                    <nciodm:CDISCDefinition>A study that assesses an agent's ability to provoke an immune response.</nciodm:CDISCDefinition>
                    <nciodm:PreferredTerm>Immunogenicity Study</nciodm:PreferredTerm>
                </EnumeratedItem>
                <EnumeratedItem CodedValue="PHARMACODYNAMIC" nciodm:ExtCodeID="C49662">
                    <nciodm:CDISCDefinition>A study of the biochemical and physiological effect of a drug and the mechanism of drug action and the relationship between drug concentration and effect. (NCI)</nciodm:CDISCDefinition>
                    <nciodm:PreferredTerm>Pharmacodynamic Study</nciodm:PreferredTerm>
                </EnumeratedItem>
                <EnumeratedItem CodedValue="PHARMACOECONOMIC" nciodm:ExtCodeID="C39493">
                    <nciodm:CDISCDefinition>A study that assesses the value associated with a given drug in therapeutic and economic terms. This type of study is multidisciplinary in nature and takes into consideration the social and economic costs (resource utilization costs including direct, indirect, and intangible costs) of drug therapy in addition to its direct therapeutic benefits. Analyses relate the difference in therapeutic benefits to the difference in costs between treatment alternatives. (NCI)</nciodm:CDISCDefinition>
                    <nciodm:PreferredTerm>Pharmacoeconomic Study</nciodm:PreferredTerm>
                </EnumeratedItem>
                <EnumeratedItem CodedValue="PHARMACOGENETIC" nciodm:ExtCodeID="C129001">
                    <nciodm:CDISCDefinition>A study that assesses variation in DNA sequence, usually within a single gene, and its effect on drug response.</nciodm:CDISCDefinition>
                    <nciodm:PreferredTerm>Pharmacogenetic Study</nciodm:PreferredTerm>
                </EnumeratedItem>
                <EnumeratedItem CodedValue="PHARMACOGENOMIC" nciodm:ExtCodeID="C49661">
                    <nciodm:CDISCDefinition>A study that identifies or assesses variations within the entire genome, including DNA, RNA, or transcriptional elements, and its effects on drug response.</nciodm:CDISCDefinition>
                    <nciodm:PreferredTerm>Pharmacogenomic Study</nciodm:PreferredTerm>
                </EnumeratedItem>
                <EnumeratedItem CodedValue="PHARMACOKINETIC" nciodm:ExtCodeID="C49663">
                    <nciodm:CDISCDefinition>A study of the process by which a drug is absorbed, distributed, metabolized, and eliminated by the body. (NCI)</nciodm:CDISCDefinition>
                    <nciodm:PreferredTerm>Pharmacokinetic Study</nciodm:PreferredTerm>
                </EnumeratedItem>
                <EnumeratedItem CodedValue="PREVENTION" nciodm:ExtCodeID="C49657">
                    <nciodm:CDISCDefinition>A type of study designed to identify actions necessary to permanently eliminate or reduce the long-term risk to human life as a result of a particular medication or treatment regimen.</nciodm:CDISCDefinition>
                    <nciodm:PreferredTerm>Prevention Study</nciodm:PreferredTerm>
                </EnumeratedItem>
                <EnumeratedItem CodedValue="SAFETY" nciodm:ExtCodeID="C49667">
                    <nciodm:CDISCDefinition>A study that assesses the medical risks to a subject. Safety is usually assessed by examining a wide range of clinical parameters, including adverse events, vital signs, physical exam, laboratory tests.</nciodm:CDISCDefinition>
                    <nciodm:PreferredTerm>Safety Study</nciodm:PreferredTerm>
                </EnumeratedItem>
                <EnumeratedItem CodedValue="TOLERABILITY" nciodm:ExtCodeID="C98791">
                    <nciodm:CDISCDefinition>A type of safety study that assesses the degree to which overt adverse effects can be tolerated by the subject.</nciodm:CDISCDefinition>
                    <nciodm:PreferredTerm>Tolerability Study</nciodm:PreferredTerm>
                </EnumeratedItem>
                <EnumeratedItem CodedValue="TREATMENT" nciodm:ExtCodeID="C49656">
                    <nciodm:CDISCSynonym>Therapy Trial</nciodm:CDISCSynonym>
                    <nciodm:CDISCDefinition>A type of study protocol designed to evaluate intervention(s) for treatment of disease, syndrome or condition.</nciodm:CDISCDefinition>
                    <nciodm:PreferredTerm>Treatment Study</nciodm:PreferredTerm>
                </EnumeratedItem>
                <nciodm:CDISCSubmissionValue>TTYPE</nciodm:CDISCSubmissionValue>
                <nciodm:CDISCSynonym>Trial Type Response</nciodm:CDISCSynonym>
                <nciodm:PreferredTerm>CDISC SDTM Trial Type Terminology</nciodm:PreferredTerm>
            </CodeList>
            
