<CodeList xmlns="http://www.cdisc.org/ns/odm/v1.3" xmlns:nciodm="http://ncicb.nci.nih.gov/xml/odm/EVS/CDISC" xmlns:xs="http://www.w3.org/2001/XMLSchema-instance" OID="CL.C127356.FAC052TC" Name="The National Comprehensive Cancer Network/Functional Assessment of Cancer Therapy-Prostate Symptom Index 17 Version 2 Questionnaire Test Code" DataType="text" nciodm:ExtCodeID="C127356" nciodm:CodeListExtensible="No">
                <Description>
                    <TranslatedText xml:lang="en">The National Comprehensive Cancer Network/Functional Assessment of Cancer Therapy-Prostate Symptom Index 17 Version 2 test code.</TranslatedText>
                </Description>
                <EnumeratedItem CodedValue="FAC05201" nciodm:ExtCodeID="C127448">
                    <nciodm:CDISCSynonym>FAC052-I Have a Lack of Energy</nciodm:CDISCSynonym>
                    <nciodm:CDISCDefinition>National Comprehensive Cancer Network/Functional Assessment of Cancer Therapy-Prostate Symptom Index 17 Version 2 - I have a lack of energy.</nciodm:CDISCDefinition>
                    <nciodm:PreferredTerm>NCCN-FACT-FPSI 17 Version 2 - I Have a Lack of Energy</nciodm:PreferredTerm>
                </EnumeratedItem>
                <EnumeratedItem CodedValue="FAC05202" nciodm:ExtCodeID="C127449">
                    <nciodm:CDISCSynonym>FAC052-I Have Pain</nciodm:CDISCSynonym>
                    <nciodm:CDISCDefinition>National Comprehensive Cancer Network/Functional Assessment of Cancer Therapy-Prostate Symptom Index 17 Version 2 - I have pain.</nciodm:CDISCDefinition>
                    <nciodm:PreferredTerm>NCCN-FACT-FPSI 17 Version 2 - I Have Pain</nciodm:PreferredTerm>
                </EnumeratedItem>
                <EnumeratedItem CodedValue="FAC05203" nciodm:ExtCodeID="C127450">
                    <nciodm:CDISCSynonym>FAC052-I Have Difficulty Urinating</nciodm:CDISCSynonym>
                    <nciodm:CDISCDefinition>National Comprehensive Cancer Network/Functional Assessment of Cancer Therapy-Prostate Symptom Index 17 Version 2 - I have difficulty urinating.</nciodm:CDISCDefinition>
                    <nciodm:PreferredTerm>NCCN-FACT-FPSI 17 Version 2 - I Have Difficulty Urinating</nciodm:PreferredTerm>
                </EnumeratedItem>
                <EnumeratedItem CodedValue="FAC05204" nciodm:ExtCodeID="C127451">
                    <nciodm:CDISCSynonym>FAC052-I Am Losing Weight</nciodm:CDISCSynonym>
                    <nciodm:CDISCDefinition>National Comprehensive Cancer Network/Functional Assessment of Cancer Therapy-Prostate Symptom Index 17 Version 2 - I am losing weight.</nciodm:CDISCDefinition>
                    <nciodm:PreferredTerm>NCCN-FACT-FPSI 17 Version 2 - I Am Losing Weight</nciodm:PreferredTerm>
                </EnumeratedItem>
                <EnumeratedItem CodedValue="FAC05205" nciodm:ExtCodeID="C127452">
                    <nciodm:CDISCSynonym>FAC052-I Have Bone Pain</nciodm:CDISCSynonym>
                    <nciodm:CDISCDefinition>National Comprehensive Cancer Network/Functional Assessment of Cancer Therapy-Prostate Symptom Index 17 Version 2 - I have bone pain.</nciodm:CDISCDefinition>
                    <nciodm:PreferredTerm>NCCN-FACT-FPSI 17 Version 2 - I Have Bone Pain</nciodm:PreferredTerm>
                </EnumeratedItem>
                <EnumeratedItem CodedValue="FAC05206" nciodm:ExtCodeID="C127453">
                    <nciodm:CDISCSynonym>FAC052-I Feel Fatigued</nciodm:CDISCSynonym>
                    <nciodm:CDISCDefinition>National Comprehensive Cancer Network/Functional Assessment of Cancer Therapy-Prostate Symptom Index 17 Version 2 - I feel fatigued.</nciodm:CDISCDefinition>
                    <nciodm:PreferredTerm>NCCN-FACT-FPSI 17 Version 2 - I Feel Fatigued</nciodm:PreferredTerm>
                </EnumeratedItem>
                <EnumeratedItem CodedValue="FAC05207" nciodm:ExtCodeID="C127454">
                    <nciodm:CDISCSynonym>FAC052-I Have Weakness in My Legs</nciodm:CDISCSynonym>
                    <nciodm:CDISCDefinition>National Comprehensive Cancer Network/Functional Assessment of Cancer Therapy-Prostate Symptom Index 17 Version 2 - I have weakness in my legs.</nciodm:CDISCDefinition>
                    <nciodm:PreferredTerm>NCCN-FACT-FPSI 17 Version 2 - I Have Weakness in My Legs</nciodm:PreferredTerm>
                </EnumeratedItem>
                <EnumeratedItem CodedValue="FAC05208" nciodm:ExtCodeID="C127455">
                    <nciodm:CDISCSynonym>FAC052-Pain Keeps Me From Doing Things</nciodm:CDISCSynonym>
                    <nciodm:CDISCDefinition>National Comprehensive Cancer Network/Functional Assessment of Cancer Therapy-Prostate Symptom Index 17 Version 2 - My pain keeps me from doing things I want to do.</nciodm:CDISCDefinition>
                    <nciodm:PreferredTerm>NCCN-FACT-FPSI 17 Version 2 - Pain Keeps Me From Doing Things</nciodm:PreferredTerm>
                </EnumeratedItem>
                <EnumeratedItem CodedValue="FAC05209" nciodm:ExtCodeID="C127456">
                    <nciodm:CDISCSynonym>FAC052-I Have a Good Appetite</nciodm:CDISCSynonym>
                    <nciodm:CDISCDefinition>National Comprehensive Cancer Network/Functional Assessment of Cancer Therapy-Prostate Symptom Index 17 Version 2 - I have a good appetite.</nciodm:CDISCDefinition>
                    <nciodm:PreferredTerm>NCCN-FACT-FPSI 17 Version 2 - I Have a Good Appetite</nciodm:PreferredTerm>
                </EnumeratedItem>
                <EnumeratedItem CodedValue="FAC05210" nciodm:ExtCodeID="C127457">
                    <nciodm:CDISCSynonym>FAC052-I Am Sleeping Well</nciodm:CDISCSynonym>
                    <nciodm:CDISCDefinition>National Comprehensive Cancer Network/Functional Assessment of Cancer Therapy-Prostate Symptom Index 17 Version 2 - I am sleeping well.</nciodm:CDISCDefinition>
                    <nciodm:PreferredTerm>NCCN-FACT-FPSI 17 Version 2 - I Am Sleeping Well</nciodm:PreferredTerm>
                </EnumeratedItem>
                <EnumeratedItem CodedValue="FAC05211" nciodm:ExtCodeID="C127458">
                    <nciodm:CDISCSynonym>FAC052-Worry My Condition Will Get Worse</nciodm:CDISCSynonym>
                    <nciodm:CDISCDefinition>National Comprehensive Cancer Network/Functional Assessment of Cancer Therapy-Prostate Symptom Index 17 Version 2 - I worry that my condition will get worse.</nciodm:CDISCDefinition>
                    <nciodm:PreferredTerm>NCCN-FACT-FPSI 17 Version 2 - Worry My Condition Will Get Worse</nciodm:PreferredTerm>
                </EnumeratedItem>
                <EnumeratedItem CodedValue="FAC05212" nciodm:ExtCodeID="C127459">
                    <nciodm:CDISCSynonym>FAC052-I Have Nausea</nciodm:CDISCSynonym>
                    <nciodm:CDISCDefinition>National Comprehensive Cancer Network/Functional Assessment of Cancer Therapy-Prostate Symptom Index 17 Version 2 - I have nausea.</nciodm:CDISCDefinition>
                    <nciodm:PreferredTerm>NCCN-FACT-FPSI 17 Version 2 - I Have Nausea</nciodm:PreferredTerm>
                </EnumeratedItem>
                <EnumeratedItem CodedValue="FAC05213" nciodm:ExtCodeID="C127460">
                    <nciodm:CDISCSynonym>FAC052-I Have Trouble Moving My Bowels</nciodm:CDISCSynonym>
                    <nciodm:CDISCDefinition>National Comprehensive Cancer Network/Functional Assessment of Cancer Therapy-Prostate Symptom Index 17 Version 2 - I have trouble moving my bowels.</nciodm:CDISCDefinition>
                    <nciodm:PreferredTerm>NCCN-FACT-FPSI 17 Version 2 - I Have Trouble Moving My Bowels</nciodm:PreferredTerm>
                </EnumeratedItem>
                <EnumeratedItem CodedValue="FAC05214" nciodm:ExtCodeID="C127461">
                    <nciodm:CDISCSynonym>FAC052-I Am Satisfied With My Sex Life</nciodm:CDISCSynonym>
                    <nciodm:CDISCDefinition>National Comprehensive Cancer Network/Functional Assessment of Cancer Therapy-Prostate Symptom Index 17 Version 2 - I am satisfied with my sex life.</nciodm:CDISCDefinition>
                    <nciodm:PreferredTerm>NCCN-FACT-FPSI 17 Version 2 - I Am Satisfied With My Sex Life</nciodm:PreferredTerm>
                </EnumeratedItem>
                <EnumeratedItem CodedValue="FAC05215" nciodm:ExtCodeID="C127462">
                    <nciodm:CDISCSynonym>FAC052-Bothered by Treatment Side Effect</nciodm:CDISCSynonym>
                    <nciodm:CDISCDefinition>National Comprehensive Cancer Network/Functional Assessment of Cancer Therapy-Prostate Symptom Index 17 Version 2 - I am bothered by side effects of treatment.</nciodm:CDISCDefinition>
                    <nciodm:PreferredTerm>NCCN-FACT-FPSI 17 Version 2 - Bothered by Treatment Side Effect</nciodm:PreferredTerm>
                </EnumeratedItem>
                <EnumeratedItem CodedValue="FAC05216" nciodm:ExtCodeID="C127463">
                    <nciodm:CDISCSynonym>FAC052-I Am Able to Enjoy Life</nciodm:CDISCSynonym>
                    <nciodm:CDISCDefinition>National Comprehensive Cancer Network/Functional Assessment of Cancer Therapy-Prostate Symptom Index 17 Version 2 - I am able to enjoy life.</nciodm:CDISCDefinition>
                    <nciodm:PreferredTerm>NCCN-FACT-FPSI 17 Version 2 - I Am Able to Enjoy Life</nciodm:PreferredTerm>
                </EnumeratedItem>
                <EnumeratedItem CodedValue="FAC05217" nciodm:ExtCodeID="C127464">
                    <nciodm:CDISCSynonym>FAC052-Content With Quality of My Life</nciodm:CDISCSynonym>
                    <nciodm:CDISCDefinition>National Comprehensive Cancer Network/Functional Assessment of Cancer Therapy-Prostate Symptom Index 17 Version 2 - I am content with the quality of my life right now.</nciodm:CDISCDefinition>
                    <nciodm:PreferredTerm>NCCN-FACT-FPSI 17 Version 2 - Content With Quality of My Life</nciodm:PreferredTerm>
                </EnumeratedItem>
                <nciodm:CDISCSubmissionValue>FAC052TC</nciodm:CDISCSubmissionValue>
                <nciodm:CDISCSynonym>The National Comprehensive Cancer Network/Functional Assessment of Cancer Therapy-Prostate Symptom Index 17 Version 2 Questionnaire Test Code</nciodm:CDISCSynonym>
                <nciodm:PreferredTerm>CDISC Questionnaire NCCN-FACT-FPSI 17 Version 2 Test Code Terminology</nciodm:PreferredTerm>
            </CodeList>
            
