<CodeList xmlns="http://www.cdisc.org/ns/odm/v1.3" xmlns:nciodm="http://ncicb.nci.nih.gov/xml/odm/EVS/CDISC" xmlns:xs="http://www.w3.org/2001/XMLSchema-instance" OID="CL.C102581.MCIDCERT" Name="Microbial Identification Certainty" DataType="text" nciodm:ExtCodeID="C102581" nciodm:CodeListExtensible="No">
                <Description>
                    <TranslatedText xml:lang="en">Terminology relevant to the degree of certainty of the correctness of a microbial identification test result.</TranslatedText>
                </Description>
                <EnumeratedItem CodedValue="DEFINITIVE" nciodm:ExtCodeID="C62607">
                    <nciodm:CDISCDefinition>Supplying or being a final or conclusive settlement or result.</nciodm:CDISCDefinition>
                    <nciodm:PreferredTerm>Definitive</nciodm:PreferredTerm>
                </EnumeratedItem>
                <EnumeratedItem CodedValue="PRESUMPTIVE" nciodm:ExtCodeID="C102697">
                    <nciodm:CDISCDefinition>Supplying or being a probable or reasonable settlement or result.</nciodm:CDISCDefinition>
                    <nciodm:PreferredTerm>Presumptive</nciodm:PreferredTerm>
                </EnumeratedItem>
                <nciodm:CDISCSubmissionValue>MCIDCERT</nciodm:CDISCSubmissionValue>
                <nciodm:CDISCSynonym>Microbial Identification Certainty</nciodm:CDISCSynonym>
                <nciodm:PreferredTerm>CDISC SDTM Microbial Identification Certainty Terminology</nciodm:PreferredTerm>
            </CodeList>
            
