<CodeList xmlns="http://www.cdisc.org/ns/odm/v1.3" xmlns:nciodm="http://ncicb.nci.nih.gov/xml/odm/EVS/CDISC" xmlns:xs="http://www.w3.org/2001/XMLSchema-instance" OID="CL.C112444.MHIS-NACC TEST" Name="Modified Hachinski Ischemic Scale-NACC Version Questionnaire Test Name" DataType="text" nciodm:ExtCodeID="C112444" nciodm:CodeListExtensible="No">
                <Description>
                    <TranslatedText xml:lang="en">Modified Hachinski Ischemic Scale-NACC Version test name.</TranslatedText>
                </Description>
                <EnumeratedItem CodedValue="MHIS01- Somatic Complaints" nciodm:ExtCodeID="C112813">
                    <nciodm:CDISCSynonym>MHIS01- Somatic Complaints</nciodm:CDISCSynonym>
                    <nciodm:CDISCDefinition>Modified Hachinski Ischemic Scale-NACC Version - Somatic complaints.</nciodm:CDISCDefinition>
                    <nciodm:PreferredTerm>MHIS-NACC - Somatic Complaints</nciodm:PreferredTerm>
                </EnumeratedItem>
                <EnumeratedItem CodedValue="MHIS01-Abrupt Onset" nciodm:ExtCodeID="C112618">
                    <nciodm:CDISCSynonym>MHIS01-Abrupt Onset</nciodm:CDISCSynonym>
                    <nciodm:CDISCDefinition>Modified Hachinski Ischemic Scale-NACC Version - Abrupt onset (re: cognitive status).</nciodm:CDISCDefinition>
                    <nciodm:PreferredTerm>MHIS-NACC - Abrupt Onset</nciodm:PreferredTerm>
                </EnumeratedItem>
                <EnumeratedItem CodedValue="MHIS01-Emotional Incontinence" nciodm:ExtCodeID="C112620">
                    <nciodm:CDISCSynonym>MHIS01-Emotional Incontinence</nciodm:CDISCSynonym>
                    <nciodm:CDISCDefinition>Modified Hachinski Ischemic Scale-NACC Version - Emotional incontinence.</nciodm:CDISCDefinition>
                    <nciodm:PreferredTerm>MHIS-NACC - Emotional Incontinence</nciodm:PreferredTerm>
                </EnumeratedItem>
                <EnumeratedItem CodedValue="MHIS01-Focal Neurological Signs" nciodm:ExtCodeID="C112624">
                    <nciodm:CDISCSynonym>MHIS01-Focal Neurological Signs</nciodm:CDISCSynonym>
                    <nciodm:CDISCDefinition>Modified Hachinski Ischemic Scale-NACC Version - Focal neurological signs.</nciodm:CDISCDefinition>
                    <nciodm:PreferredTerm>MHIS-NACC - Focal Neurological Signs</nciodm:PreferredTerm>
                </EnumeratedItem>
                <EnumeratedItem CodedValue="MHIS01-Focal Neurological Symptoms" nciodm:ExtCodeID="C112623">
                    <nciodm:CDISCSynonym>MHIS01-Focal Neurological Symptoms</nciodm:CDISCSynonym>
                    <nciodm:CDISCDefinition>Modified Hachinski Ischemic Scale-NACC Version - Focal neurological symptoms.</nciodm:CDISCDefinition>
                    <nciodm:PreferredTerm>MHIS-NACC - Focal Neurological Symptoms</nciodm:PreferredTerm>
                </EnumeratedItem>
                <EnumeratedItem CodedValue="MHIS01-History of Stroke" nciodm:ExtCodeID="C112622">
                    <nciodm:CDISCSynonym>MHIS01-History of Stroke</nciodm:CDISCSynonym>
                    <nciodm:CDISCDefinition>Modified Hachinski Ischemic Scale-NACC Version - History of stroke.</nciodm:CDISCDefinition>
                    <nciodm:PreferredTerm>MHIS-NACC - History of Stroke</nciodm:PreferredTerm>
                </EnumeratedItem>
                <EnumeratedItem CodedValue="MHIS01-History or Presence Hypertension" nciodm:ExtCodeID="C112621">
                    <nciodm:CDISCSynonym>MHIS01-History or Presence Hypertension</nciodm:CDISCSynonym>
                    <nciodm:CDISCDefinition>Modified Hachinski Ischemic Scale-NACC Version - History or presence of hypertension.</nciodm:CDISCDefinition>
                    <nciodm:PreferredTerm>MHIS-NACC - History or Presence of Hypertension</nciodm:PreferredTerm>
                </EnumeratedItem>
                <EnumeratedItem CodedValue="MHIS01-Stepwise Deterioration" nciodm:ExtCodeID="C112619">
                    <nciodm:CDISCSynonym>MHIS01-Stepwise Deterioration</nciodm:CDISCSynonym>
                    <nciodm:CDISCDefinition>Modified Hachinski Ischemic Scale-NACC Version - Stepwise deterioration (re: cognitive status).</nciodm:CDISCDefinition>
                    <nciodm:PreferredTerm>MHIS-NACC - Stepwise Deterioration</nciodm:PreferredTerm>
                </EnumeratedItem>
                <EnumeratedItem CodedValue="MHIS01-Total Score" nciodm:ExtCodeID="C112625">
                    <nciodm:CDISCSynonym>MHIS01-Total Score</nciodm:CDISCSynonym>
                    <nciodm:CDISCDefinition>Modified Hachinski Ischemic Scale-NACC Version - Sum all circled answers for a total score.</nciodm:CDISCDefinition>
                    <nciodm:PreferredTerm>MHIS-NACC - Total Score</nciodm:PreferredTerm>
                </EnumeratedItem>
                <nciodm:CDISCSubmissionValue>MHIS-NACC TEST</nciodm:CDISCSubmissionValue>
                <nciodm:CDISCSynonym>Modified Hachinski Ischemic Scale-NACC Version Questionnaire Test Name</nciodm:CDISCSynonym>
                <nciodm:PreferredTerm>CDISC Questionnaire MHIS-NACC Test Name Terminology</nciodm:PreferredTerm>
            </CodeList>
            
