<CodeList xmlns="http://www.cdisc.org/ns/odm/v1.3" xmlns:nciodm="http://ncicb.nci.nih.gov/xml/odm/EVS/CDISC" xmlns:xs="http://www.w3.org/2001/XMLSchema-instance" OID="CL.C124678.CDC HIV CLASSIFICATION FOR ADULTS AND ADOLESCENTS TESTCD" Name="CDC Classification System for HIV-Infected Adults and Adolescents Clinical Classification Test Code" DataType="text" nciodm:ExtCodeID="C124678" nciodm:CodeListExtensible="No">
                <Description>
                    <TranslatedText xml:lang="en">CDC Classification System for HIV-Infected Adults and Adolescents test code.</TranslatedText>
                </Description>
                <EnumeratedItem CodedValue="CHIVC101" nciodm:ExtCodeID="C124779">
                    <nciodm:CDISCSynonym>CHIVC1-CDC HIV Infection Category</nciodm:CDISCSynonym>
                    <nciodm:CDISCDefinition>CDC Classification System for HIV-Infected Adults and Adolescents - CDC HIV infection category.</nciodm:CDISCDefinition>
                    <nciodm:PreferredTerm>CDC Classification System for HIV-Infected Adults and Adolescents - CDC HIV Infection Category</nciodm:PreferredTerm>
                </EnumeratedItem>
                <nciodm:CDISCSubmissionValue>CDC HIV CLASSIFICATION FOR ADULTS AND ADOLESCENTS TESTCD</nciodm:CDISCSubmissionValue>
                <nciodm:CDISCSynonym>CDC Classification System for HIV-Infected Adults and Adolescents Clinical Classification Test Code</nciodm:CDISCSynonym>
                <nciodm:PreferredTerm>CDISC Clinical Classification CDC Classification System for HIV-Infected Adults and Adolescents Test Code Terminology</nciodm:PreferredTerm>
            </CodeList>
            
