<CodeList xmlns="http://www.cdisc.org/ns/odm/v1.3" xmlns:nciodm="http://ncicb.nci.nih.gov/xml/odm/EVS/CDISC" xmlns:xs="http://www.w3.org/2001/XMLSchema-instance" OID="CL.C106655.BDI01TC" Name="Baseline Dyspnea Index Questionnaire Test Code" DataType="text" nciodm:ExtCodeID="C106655" nciodm:CodeListExtensible="No">
                <Description>
                    <TranslatedText xml:lang="en">Baseline Dyspnea Index test code.</TranslatedText>
                </Description>
                <EnumeratedItem CodedValue="BDI0101" nciodm:ExtCodeID="C106701">
                    <nciodm:CDISCSynonym>BDI01-Functional Impairment</nciodm:CDISCSynonym>
                    <nciodm:CDISCDefinition>Baseline Dyspnea Index - Functional impairment.</nciodm:CDISCDefinition>
                    <nciodm:PreferredTerm>BDI - Functional Impairment</nciodm:PreferredTerm>
                </EnumeratedItem>
                <EnumeratedItem CodedValue="BDI0102" nciodm:ExtCodeID="C106702">
                    <nciodm:CDISCSynonym>BDI01-Magnitude of Task</nciodm:CDISCSynonym>
                    <nciodm:CDISCDefinition>Baseline Dyspnea Index - Magnitude of task.</nciodm:CDISCDefinition>
                    <nciodm:PreferredTerm>BDI - Magnitude of Task</nciodm:PreferredTerm>
                </EnumeratedItem>
                <EnumeratedItem CodedValue="BDI0103" nciodm:ExtCodeID="C106703">
                    <nciodm:CDISCSynonym>BDI01-Magnitude of Effort</nciodm:CDISCSynonym>
                    <nciodm:CDISCDefinition>Baseline Dyspnea Index - Magnitude of effort.</nciodm:CDISCDefinition>
                    <nciodm:PreferredTerm>BDI - Magnitude of Effort</nciodm:PreferredTerm>
                </EnumeratedItem>
                <nciodm:CDISCSubmissionValue>BDI01TC</nciodm:CDISCSubmissionValue>
                <nciodm:CDISCSynonym>Baseline Dyspnea Index Questionnaire Test Code</nciodm:CDISCSynonym>
                <nciodm:PreferredTerm>CDISC Questionnaire BDI Test Code Terminology</nciodm:PreferredTerm>
            </CodeList>
            
