<CodeList xmlns="http://www.cdisc.org/ns/odm/v1.3" xmlns:nciodm="http://ncicb.nci.nih.gov/xml/odm/EVS/CDISC" xmlns:xs="http://www.w3.org/2001/XMLSchema-instance" OID="CL.C101849.CADRISK" Name="Coronary Artery Disease Risk" DataType="text" nciodm:ExtCodeID="C101849" nciodm:CodeListExtensible="No">
                <Description>
                    <TranslatedText xml:lang="en">A terminology codelist to describe the relative risk of coronary artery disease.</TranslatedText>
                </Description>
                <EnumeratedItem CodedValue="HIGH CAD RISK" nciodm:ExtCodeID="C99955">
                    <nciodm:CDISCSynonym>High Coronary Artery Disease Risk</nciodm:CDISCSynonym>
                    <nciodm:CDISCDefinition>The likelihood an individual will develop coronary artery disease is almost certain or greater than 90%. (Gibbons RJ, Balady GJ, Bricker JT, Chaitman BR, Fletcher GF, Froelicher VF, Mark DB, McCallister BD, Mooss AN, O'Reilly MG, Winters WL Jr. ACC/AHA 2002 guideline update for exercise testing: a report of the American College of Cardiology/American Heart Association Task Force on Practice Guidelines (Committee on Exercise Testing). 2002. American College of Cardiology Web site. Available at: www.acc.org/clinical/guidelines/exercise/dirIndex.htm.)</nciodm:CDISCDefinition>
                    <nciodm:PreferredTerm>High Coronary Artery Disease Risk</nciodm:PreferredTerm>
                </EnumeratedItem>
                <EnumeratedItem CodedValue="INTERMEDIATE CAD RISK" nciodm:ExtCodeID="C99966">
                    <nciodm:CDISCSynonym>Intermediate Coronary Artery Disease Risk</nciodm:CDISCSynonym>
                    <nciodm:CDISCDefinition>The likelihood an individual will develop coronary artery disease (CAD) is moderate or between 10% and 90%. (Gibbons RJ, Balady GJ, Bricker JT, Chaitman BR, Fletcher GF, Froelicher VF, Mark DB, McCallister BD, Mooss AN, O'Reilly MG, Winters WL Jr. ACC/AHA 2002 guideline update for exercise testing: a report of the American College of Cardiology/American Heart Association Task Force on Practice Guidelines (Committee on Exercise Testing). 2002. American College of Cardiology Web site. Available at: www.acc.org/clinical/guidelines/exercise/dirIndex.htm.)</nciodm:CDISCDefinition>
                    <nciodm:PreferredTerm>Intermediate Coronary Artery Disease Risk</nciodm:PreferredTerm>
                </EnumeratedItem>
                <EnumeratedItem CodedValue="KNOWN CAD" nciodm:ExtCodeID="C99968">
                    <nciodm:CDISCSynonym>Known Coronary Artery Disease</nciodm:CDISCSynonym>
                    <nciodm:CDISCDefinition>The individual has coronary artery disease (CAD). (Gibbons RJ, Balady GJ, Bricker JT, Chaitman BR, Fletcher GF, Froelicher VF, Mark DB, McCallister BD, Mooss AN, O'Reilly MG, Winters WL Jr. ACC/AHA 2002 guideline update for exercise testing: a report of the American College of Cardiology/American Heart Association Task Force on Practice Guidelines (Committee on Exercise Testing). 2002. American College of Cardiology Web site. Available at: www.acc.org/clinical/guidelines/exercise/dirIndex.htm.)</nciodm:CDISCDefinition>
                    <nciodm:PreferredTerm>Known Coronary Artery Disease</nciodm:PreferredTerm>
                </EnumeratedItem>
                <EnumeratedItem CodedValue="LOW CAD RISK" nciodm:ExtCodeID="C99978">
                    <nciodm:CDISCSynonym>Low Coronary Artery Disease Risk</nciodm:CDISCSynonym>
                    <nciodm:CDISCDefinition>The likelihood an individual will develop coronary artery disease (CAD) is minimal or less than10%.(Gibbons RJ, Balady GJ, Bricker JT, Chaitman BR, Fletcher GF, Froelicher VF, Mark DB, McCallister BD, Mooss AN, O'Reilly MG, Winters WL Jr. ACC/AHA 2002 guideline update for exercise testing: a report of the American College of Cardiology/American Heart Association Task Force on Practice Guidelines (Committee on Exercise Testing). 2002. American College of Cardiology Web site. Available at: www.acc.org/clinical/guidelines/exercise/dirIndex.htm.)</nciodm:CDISCDefinition>
                    <nciodm:PreferredTerm>Low Coronary Artery Disease Risk</nciodm:PreferredTerm>
                </EnumeratedItem>
                <nciodm:CDISCSubmissionValue>CADRISK</nciodm:CDISCSubmissionValue>
                <nciodm:CDISCSynonym>Coronary Artery Disease Risk</nciodm:CDISCSynonym>
                <nciodm:PreferredTerm>CDISC SDTM Coronary Artery Disease Risk Terminology</nciodm:PreferredTerm>
            </CodeList>
            
