<CodeList xmlns="http://www.cdisc.org/ns/odm/v1.3" xmlns:nciodm="http://ncicb.nci.nih.gov/xml/odm/EVS/CDISC" xmlns:xs="http://www.w3.org/2001/XMLSchema-instance" OID="CL.C138253.PQL02TC" Name="Pediatric Quality of Life Neuromuscular Module Version 3 Young Adult Parent Report Questionnaire Test Code" DataType="text" nciodm:ExtCodeID="C138253" nciodm:CodeListExtensible="No">
                <Description>
                    <TranslatedText xml:lang="en">Pediatric Quality of Life Neuromuscular Module Version 3 Young Adult Parent Report test code.</TranslatedText>
                </Description>
                <EnumeratedItem CodedValue="PQL0201" nciodm:ExtCodeID="C138782">
                    <nciodm:CDISCSynonym>PQL02-Hard to Breathe</nciodm:CDISCSynonym>
                    <nciodm:CDISCDefinition>Pediatric Quality of Life Neuromuscular Module Version 3 Young Adult Parent Report - In the past one month, how much of a problem has this been for your child: It is hard for my child to breathe.</nciodm:CDISCDefinition>
                    <nciodm:PreferredTerm>PedsQL Neuromuscular Module Version 3.0 Parent Report for Young Adults Report - Hard to Breathe</nciodm:PreferredTerm>
                </EnumeratedItem>
                <EnumeratedItem CodedValue="PQL0202" nciodm:ExtCodeID="C138783">
                    <nciodm:CDISCSynonym>PQL02-Get Sick Easily</nciodm:CDISCSynonym>
                    <nciodm:CDISCDefinition>Pediatric Quality of Life Neuromuscular Module Version 3 Young Adult Parent Report - In the past one month, how much of a problem has this been for your child: My child gets sick easily.</nciodm:CDISCDefinition>
                    <nciodm:PreferredTerm>PedsQL Neuromuscular Module Version 3.0 Parent Report for Young Adults Report - Get Sick Easily</nciodm:PreferredTerm>
                </EnumeratedItem>
                <EnumeratedItem CodedValue="PQL0203" nciodm:ExtCodeID="C138784">
                    <nciodm:CDISCSynonym>PQL02-Get Sores and/or Rashes</nciodm:CDISCSynonym>
                    <nciodm:CDISCDefinition>Pediatric Quality of Life Neuromuscular Module Version 3 Young Adult Parent Report - In the past one month, how much of a problem has this been for your child: My child gets sores and/or rashes.</nciodm:CDISCDefinition>
                    <nciodm:PreferredTerm>PedsQL Neuromuscular Module Version 3.0 Parent Report for Young Adults Report - Get Sores and/or Rashes</nciodm:PreferredTerm>
                </EnumeratedItem>
                <EnumeratedItem CodedValue="PQL0204" nciodm:ExtCodeID="C138785">
                    <nciodm:CDISCSynonym>PQL02-Legs Hurt</nciodm:CDISCSynonym>
                    <nciodm:CDISCDefinition>Pediatric Quality of Life Neuromuscular Module Version 3 Young Adult Parent Report - In the past one month, how much of a problem has this been for your child: My child's legs hurt.</nciodm:CDISCDefinition>
                    <nciodm:PreferredTerm>PedsQL Neuromuscular Module Version 3.0 Parent Report for Young Adults Report - Legs Hurt</nciodm:PreferredTerm>
                </EnumeratedItem>
                <EnumeratedItem CodedValue="PQL0205" nciodm:ExtCodeID="C138786">
                    <nciodm:CDISCSynonym>PQL02-Feel Tired</nciodm:CDISCSynonym>
                    <nciodm:CDISCDefinition>Pediatric Quality of Life Neuromuscular Module Version 3 Young Adult Parent Report - In the past one month, how much of a problem has this been for your child: My child feels tired.</nciodm:CDISCDefinition>
                    <nciodm:PreferredTerm>PedsQL Neuromuscular Module Version 3.0 Parent Report for Young Adults Report - Feel Tired</nciodm:PreferredTerm>
                </EnumeratedItem>
                <EnumeratedItem CodedValue="PQL0206" nciodm:ExtCodeID="C138787">
                    <nciodm:CDISCSynonym>PQL02-Back Feels Stiff</nciodm:CDISCSynonym>
                    <nciodm:CDISCDefinition>Pediatric Quality of Life Neuromuscular Module Version 3 Young Adult Parent Report - In the past one month, how much of a problem has this been for your child: My child's back feels stiff.</nciodm:CDISCDefinition>
                    <nciodm:PreferredTerm>PedsQL Neuromuscular Module Version 3.0 Parent Report for Young Adults Report - Back Feels Stiff</nciodm:PreferredTerm>
                </EnumeratedItem>
                <EnumeratedItem CodedValue="PQL0207" nciodm:ExtCodeID="C138788">
                    <nciodm:CDISCSynonym>PQL02-Wake Up Tired</nciodm:CDISCSynonym>
                    <nciodm:CDISCDefinition>Pediatric Quality of Life Neuromuscular Module Version 3 Young Adult Parent Report - In the past one month, how much of a problem has this been for your child: My child wakes up tired.</nciodm:CDISCDefinition>
                    <nciodm:PreferredTerm>PedsQL Neuromuscular Module Version 3.0 Parent Report for Young Adults Report - Wake Up Tired</nciodm:PreferredTerm>
                </EnumeratedItem>
                <EnumeratedItem CodedValue="PQL0208" nciodm:ExtCodeID="C138789">
                    <nciodm:CDISCSynonym>PQL02-Hands Are Weak</nciodm:CDISCSynonym>
                    <nciodm:CDISCDefinition>Pediatric Quality of Life Neuromuscular Module Version 3 Young Adult Parent Report - In the past one month, how much of a problem has this been for your child: My child's hands are weak.</nciodm:CDISCDefinition>
                    <nciodm:PreferredTerm>PedsQL Neuromuscular Module Version 3.0 Parent Report for Young Adults Report - Hands Are Weak</nciodm:PreferredTerm>
                </EnumeratedItem>
                <EnumeratedItem CodedValue="PQL0209" nciodm:ExtCodeID="C138790">
                    <nciodm:CDISCSynonym>PQL02-Hard to Use Bathroom</nciodm:CDISCSynonym>
                    <nciodm:CDISCDefinition>Pediatric Quality of Life Neuromuscular Module Version 3 Young Adult Parent Report - In the past one month, how much of a problem has this been for your child: It is hard for my child to use the bathroom.</nciodm:CDISCDefinition>
                    <nciodm:PreferredTerm>PedsQL Neuromuscular Module Version 3.0 Parent Report for Young Adults Report - Hard to Use Bathroom</nciodm:PreferredTerm>
                </EnumeratedItem>
                <EnumeratedItem CodedValue="PQL0210" nciodm:ExtCodeID="C138791">
                    <nciodm:CDISCSynonym>PQL02-Hard to Gain/Lose Weight</nciodm:CDISCSynonym>
                    <nciodm:CDISCDefinition>Pediatric Quality of Life Neuromuscular Module Version 3 Young Adult Parent Report - In the past one month, how much of a problem has this been for your child: It is hard for my child to gain or lose weight when he or she wants to.</nciodm:CDISCDefinition>
                    <nciodm:PreferredTerm>PedsQL Neuromuscular Module Version 3.0 Parent Report for Young Adults Report - Hard to Gain or Lose Weight</nciodm:PreferredTerm>
                </EnumeratedItem>
                <EnumeratedItem CodedValue="PQL0211" nciodm:ExtCodeID="C138792">
                    <nciodm:CDISCSynonym>PQL02-Hard to Use Hands</nciodm:CDISCSynonym>
                    <nciodm:CDISCDefinition>Pediatric Quality of Life Neuromuscular Module Version 3 Young Adult Parent Report - In the past one month, how much of a problem has this been for your child: It is hard for my child to use his or her hands.</nciodm:CDISCDefinition>
                    <nciodm:PreferredTerm>PedsQL Neuromuscular Module Version 3.0 Parent Report for Young Adults Report - Hard to Use Hands</nciodm:PreferredTerm>
                </EnumeratedItem>
                <EnumeratedItem CodedValue="PQL0212" nciodm:ExtCodeID="C138793">
                    <nciodm:CDISCSynonym>PQL02-Hard to Swallow Food</nciodm:CDISCSynonym>
                    <nciodm:CDISCDefinition>Pediatric Quality of Life Neuromuscular Module Version 3 Young Adult Parent Report - In the past one month, how much of a problem has this been for your child: It is hard for my child to swallow food.</nciodm:CDISCDefinition>
                    <nciodm:PreferredTerm>PedsQL Neuromuscular Module Version 3.0 Parent Report for Young Adults Report - Hard to Swallow Food</nciodm:PreferredTerm>
                </EnumeratedItem>
                <EnumeratedItem CodedValue="PQL0213" nciodm:ExtCodeID="C138794">
                    <nciodm:CDISCSynonym>PQL02-Long Time to Bathe/Shower</nciodm:CDISCSynonym>
                    <nciodm:CDISCDefinition>Pediatric Quality of Life Neuromuscular Module Version 3 Young Adult Parent Report - In the past one month, how much of a problem has this been for your child: It takes my child a long time to bathe or shower.</nciodm:CDISCDefinition>
                    <nciodm:PreferredTerm>PedsQL Neuromuscular Module Version 3.0 Parent Report for Young Adults Report - Long Time to Bathe or Shower</nciodm:PreferredTerm>
                </EnumeratedItem>
                <EnumeratedItem CodedValue="PQL0214" nciodm:ExtCodeID="C138795">
                    <nciodm:CDISCSynonym>PQL02-Get Hurt Accidentally</nciodm:CDISCSynonym>
                    <nciodm:CDISCDefinition>Pediatric Quality of Life Neuromuscular Module Version 3 Young Adult Parent Report - In the past one month, how much of a problem has this been for your child: My child gets hurt accidentally.</nciodm:CDISCDefinition>
                    <nciodm:PreferredTerm>PedsQL Neuromuscular Module Version 3.0 Parent Report for Young Adults Report - Get Hurt Accidentally</nciodm:PreferredTerm>
                </EnumeratedItem>
                <EnumeratedItem CodedValue="PQL0215" nciodm:ExtCodeID="C138796">
                    <nciodm:CDISCSynonym>PQL02-Take Long Time to Eat</nciodm:CDISCSynonym>
                    <nciodm:CDISCDefinition>Pediatric Quality of Life Neuromuscular Module Version 3 Young Adult Parent Report - In the past one month, how much of a problem has this been for your child: My child takes a long time to eat.</nciodm:CDISCDefinition>
                    <nciodm:PreferredTerm>PedsQL Neuromuscular Module Version 3.0 Parent Report for Young Adults Report - Take Long Time to Eat</nciodm:PreferredTerm>
                </EnumeratedItem>
                <EnumeratedItem CodedValue="PQL0216" nciodm:ExtCodeID="C138797">
                    <nciodm:CDISCSynonym>PQL02-Hard to Turn During Night</nciodm:CDISCSynonym>
                    <nciodm:CDISCDefinition>Pediatric Quality of Life Neuromuscular Module Version 3 Young Adult Parent Report - In the past one month, how much of a problem has this been for your child: It is hard for my child to turn him or herself during the night.</nciodm:CDISCDefinition>
                    <nciodm:PreferredTerm>PedsQL Neuromuscular Module Version 3.0 Parent Report for Young Adults Report - Hard to Turn During Night</nciodm:PreferredTerm>
                </EnumeratedItem>
                <EnumeratedItem CodedValue="PQL0217" nciodm:ExtCodeID="C138798">
                    <nciodm:CDISCSynonym>PQL02-Hard to Go Places With Equipment</nciodm:CDISCSynonym>
                    <nciodm:CDISCDefinition>Pediatric Quality of Life Neuromuscular Module Version 3 Young Adult Parent Report - In the past one month, how much of a problem has this been for your child: It is hard for my child to go places with his or her equipment.</nciodm:CDISCDefinition>
                    <nciodm:PreferredTerm>PedsQL Neuromuscular Module Version 3.0 Parent Report for Young Adults Report - Hard to Go Places With Equipment</nciodm:PreferredTerm>
                </EnumeratedItem>
                <EnumeratedItem CodedValue="PQL0218" nciodm:ExtCodeID="C138799">
                    <nciodm:CDISCSynonym>PQL02-Hard Tell Doctors/Nurses How Feel</nciodm:CDISCSynonym>
                    <nciodm:CDISCDefinition>Pediatric Quality of Life Neuromuscular Module Version 3 Young Adult Parent Report - In the past one month, how much of a problem has this been for your child: It is hard for my child to tell the doctors and nurses how he or she feels.</nciodm:CDISCDefinition>
                    <nciodm:PreferredTerm>PedsQL Neuromuscular Module Version 3.0 Parent Report for Young Adults Report - Hard Tell Doctors and Nurses How Feel</nciodm:PreferredTerm>
                </EnumeratedItem>
                <EnumeratedItem CodedValue="PQL0219" nciodm:ExtCodeID="C138800">
                    <nciodm:CDISCSynonym>PQL02-Hard Ask Doctors/Nurses Questions</nciodm:CDISCSynonym>
                    <nciodm:CDISCDefinition>Pediatric Quality of Life Neuromuscular Module Version 3 Young Adult Parent Report - In the past one month, how much of a problem has this been for your child: It is hard for my child to ask the doctors and nurses questions.</nciodm:CDISCDefinition>
                    <nciodm:PreferredTerm>PedsQL Neuromuscular Module Version 3.0 Parent Report for Young Adults Report - Hard Ask Doctors and Nurses Questions</nciodm:PreferredTerm>
                </EnumeratedItem>
                <EnumeratedItem CodedValue="PQL0220" nciodm:ExtCodeID="C138801">
                    <nciodm:CDISCSynonym>PQL02-Hard Explain Illness to People</nciodm:CDISCSynonym>
                    <nciodm:CDISCDefinition>Pediatric Quality of Life Neuromuscular Module Version 3 Young Adult Parent Report - In the past one month, how much of a problem has this been for your child: It is hard for my child to explain his or her illness to other people.</nciodm:CDISCDefinition>
                    <nciodm:PreferredTerm>PedsQL Neuromuscular Module Version 3.0 Parent Report for Young Adults Report - Hard Explain Illness to People</nciodm:PreferredTerm>
                </EnumeratedItem>
                <EnumeratedItem CodedValue="PQL0221" nciodm:ExtCodeID="C138802">
                    <nciodm:CDISCSynonym>PQL02-Hard for Family to Plan Activities</nciodm:CDISCSynonym>
                    <nciodm:CDISCDefinition>Pediatric Quality of Life Neuromuscular Module Version 3 Young Adult Parent Report - In the past one month, how much of a problem has this been for your child: It is hard for our family to plan activities like vacations.</nciodm:CDISCDefinition>
                    <nciodm:PreferredTerm>PedsQL Neuromuscular Module Version 3.0 Parent Report for Young Adults Report - Hard for Family to Plan Activities</nciodm:PreferredTerm>
                </EnumeratedItem>
                <EnumeratedItem CodedValue="PQL0222" nciodm:ExtCodeID="C138803">
                    <nciodm:CDISCSynonym>PQL02-Hard for Family to Rest</nciodm:CDISCSynonym>
                    <nciodm:CDISCDefinition>Pediatric Quality of Life Neuromuscular Module Version 3 Young Adult Parent Report - In the past one month, how much of a problem has this been for your child: It is hard for our family to get enough rest.</nciodm:CDISCDefinition>
                    <nciodm:PreferredTerm>PedsQL Neuromuscular Module Version 3.0 Parent Report for Young Adults Report - Hard for Family to Rest</nciodm:PreferredTerm>
                </EnumeratedItem>
                <EnumeratedItem CodedValue="PQL0223" nciodm:ExtCodeID="C138804">
                    <nciodm:CDISCSynonym>PQL02-Money Problem in Our Family</nciodm:CDISCSynonym>
                    <nciodm:CDISCDefinition>Pediatric Quality of Life Neuromuscular Module Version 3 Young Adult Parent Report - In the past one month, how much of a problem has this been for your child: I think money is a problem in our family.</nciodm:CDISCDefinition>
                    <nciodm:PreferredTerm>PedsQL Neuromuscular Module Version 3.0 Parent Report for Young Adults Report - Money Problem in Our Family</nciodm:PreferredTerm>
                </EnumeratedItem>
                <EnumeratedItem CodedValue="PQL0224" nciodm:ExtCodeID="C138805">
                    <nciodm:CDISCSynonym>PQL02-Family Has Lot of Problems</nciodm:CDISCSynonym>
                    <nciodm:CDISCDefinition>Pediatric Quality of Life Neuromuscular Module Version 3 Young Adult Parent Report - In the past one month, how much of a problem has this been for your child: I think our family has a lot of problems.</nciodm:CDISCDefinition>
                    <nciodm:PreferredTerm>PedsQL Neuromuscular Module Version 3.0 Parent Report for Young Adults Report - Family Has Lot of Problems</nciodm:PreferredTerm>
                </EnumeratedItem>
                <EnumeratedItem CodedValue="PQL0225" nciodm:ExtCodeID="C138806">
                    <nciodm:CDISCSynonym>PQL02-Do Not Have Equipment Need</nciodm:CDISCSynonym>
                    <nciodm:CDISCDefinition>Pediatric Quality of Life Neuromuscular Module Version 3 Young Adult Parent Report - In the past one month, how much of a problem has this been for your child: My child does not have the equipment he or she needs.</nciodm:CDISCDefinition>
                    <nciodm:PreferredTerm>PedsQL Neuromuscular Module Version 3.0 Parent Report for Young Adults Report - Do Not Have Equipment Need</nciodm:PreferredTerm>
                </EnumeratedItem>
                <nciodm:CDISCSubmissionValue>PQL02TC</nciodm:CDISCSubmissionValue>
                <nciodm:CDISCSynonym>Pediatric Quality of Life Neuromuscular Module Version 3 Young Adult Parent Report Questionnaire Test Code</nciodm:CDISCSynonym>
                <nciodm:PreferredTerm>CDISC Questionnaire PedsQL Neuromuscular Module Version 3.0 Parent Report for Young Adults Report Test Code Terminology</nciodm:PreferredTerm>
            </CodeList>
            
