<CodeList xmlns="http://www.cdisc.org/ns/odm/v1.3" xmlns:nciodm="http://ncicb.nci.nih.gov/xml/odm/EVS/CDISC" xmlns:xs="http://www.w3.org/2001/XMLSchema-instance" OID="CL.C147540.FAC061TC" Name="Functional Assessment of Cancer Therapy-Bone Marrow Transplant Version 4 Questionnaire Test Code" DataType="text" nciodm:ExtCodeID="C147540" nciodm:CodeListExtensible="No">
                <Description>
                    <TranslatedText xml:lang="en">Functional Assessment of Cancer Therapy-Bone Marrow Transplant Version 4 test code.</TranslatedText>
                </Description>
                <EnumeratedItem CodedValue="FAC06101" nciodm:ExtCodeID="C147593">
                    <nciodm:CDISCSynonym>FAC061-I Have a Lack of Energy</nciodm:CDISCSynonym>
                    <nciodm:CDISCDefinition>Functional Assessment of Cancer Therapy-Bone Marrow Transplant Version 4 - I have a lack of energy.</nciodm:CDISCDefinition>
                    <nciodm:PreferredTerm>FACT-BMT Version 4 - I Have a Lack of Energy</nciodm:PreferredTerm>
                </EnumeratedItem>
                <EnumeratedItem CodedValue="FAC06102" nciodm:ExtCodeID="C147594">
                    <nciodm:CDISCSynonym>FAC061-I Have Nausea</nciodm:CDISCSynonym>
                    <nciodm:CDISCDefinition>Functional Assessment of Cancer Therapy-Bone Marrow Transplant Version 4 - I have nausea.</nciodm:CDISCDefinition>
                    <nciodm:PreferredTerm>FACT-BMT Version 4 - I Have Nausea</nciodm:PreferredTerm>
                </EnumeratedItem>
                <EnumeratedItem CodedValue="FAC06103" nciodm:ExtCodeID="C147595">
                    <nciodm:CDISCSynonym>FAC061-Trouble Meeting Needs of Family</nciodm:CDISCSynonym>
                    <nciodm:CDISCDefinition>Functional Assessment of Cancer Therapy-Bone Marrow Transplant Version 4 - Because of my physical condition, I have trouble meeting the needs of my family.</nciodm:CDISCDefinition>
                    <nciodm:PreferredTerm>FACT-BMT Version 4 - Trouble Meeting Needs of Family</nciodm:PreferredTerm>
                </EnumeratedItem>
                <EnumeratedItem CodedValue="FAC06104" nciodm:ExtCodeID="C147596">
                    <nciodm:CDISCSynonym>FAC061-I Have Pain</nciodm:CDISCSynonym>
                    <nciodm:CDISCDefinition>Functional Assessment of Cancer Therapy-Bone Marrow Transplant Version 4 - I have pain.</nciodm:CDISCDefinition>
                    <nciodm:PreferredTerm>FACT-BMT Version 4 - I Have Pain</nciodm:PreferredTerm>
                </EnumeratedItem>
                <EnumeratedItem CodedValue="FAC06105" nciodm:ExtCodeID="C147597">
                    <nciodm:CDISCSynonym>FAC061-Bothered by Treatment Side Effect</nciodm:CDISCSynonym>
                    <nciodm:CDISCDefinition>Functional Assessment of Cancer Therapy-Bone Marrow Transplant Version 4 - I am bothered by side effects of treatment.</nciodm:CDISCDefinition>
                    <nciodm:PreferredTerm>FACT-BMT Version 4 - Bothered by Treatment Side Effect</nciodm:PreferredTerm>
                </EnumeratedItem>
                <EnumeratedItem CodedValue="FAC06106" nciodm:ExtCodeID="C147598">
                    <nciodm:CDISCSynonym>FAC061-I Feel Ill</nciodm:CDISCSynonym>
                    <nciodm:CDISCDefinition>Functional Assessment of Cancer Therapy-Bone Marrow Transplant Version 4 - I feel ill.</nciodm:CDISCDefinition>
                    <nciodm:PreferredTerm>FACT-BMT Version 4 - I Feel Ill</nciodm:PreferredTerm>
                </EnumeratedItem>
                <EnumeratedItem CodedValue="FAC06107" nciodm:ExtCodeID="C147599">
                    <nciodm:CDISCSynonym>FAC061-I Am Forced to Spend Time in Bed</nciodm:CDISCSynonym>
                    <nciodm:CDISCDefinition>Functional Assessment of Cancer Therapy-Bone Marrow Transplant Version 4 - I am forced to spend time in bed.</nciodm:CDISCDefinition>
                    <nciodm:PreferredTerm>FACT-BMT Version 4 - I Am Forced to Spend Time in Bed</nciodm:PreferredTerm>
                </EnumeratedItem>
                <EnumeratedItem CodedValue="FAC06108" nciodm:ExtCodeID="C147600">
                    <nciodm:CDISCSynonym>FAC061-I Feel Close to My Friends</nciodm:CDISCSynonym>
                    <nciodm:CDISCDefinition>Functional Assessment of Cancer Therapy-Bone Marrow Transplant Version 4 - I feel close to my friends.</nciodm:CDISCDefinition>
                    <nciodm:PreferredTerm>FACT-BMT Version 4 - I Feel Close to My Friends</nciodm:PreferredTerm>
                </EnumeratedItem>
                <EnumeratedItem CodedValue="FAC06109" nciodm:ExtCodeID="C147601">
                    <nciodm:CDISCSynonym>FAC061-Get Emotional Support From Family</nciodm:CDISCSynonym>
                    <nciodm:CDISCDefinition>Functional Assessment of Cancer Therapy-Bone Marrow Transplant Version 4 - I get emotional support from my family.</nciodm:CDISCDefinition>
                    <nciodm:PreferredTerm>FACT-BMT Version 4 - Get Emotional Support From Family</nciodm:PreferredTerm>
                </EnumeratedItem>
                <EnumeratedItem CodedValue="FAC06110" nciodm:ExtCodeID="C147602">
                    <nciodm:CDISCSynonym>FAC061-I Get Support From My Friends</nciodm:CDISCSynonym>
                    <nciodm:CDISCDefinition>Functional Assessment of Cancer Therapy-Bone Marrow Transplant Version 4 - I get support from my friends.</nciodm:CDISCDefinition>
                    <nciodm:PreferredTerm>FACT-BMT Version 4 - I Get Support From My Friends</nciodm:PreferredTerm>
                </EnumeratedItem>
                <EnumeratedItem CodedValue="FAC06111" nciodm:ExtCodeID="C147603">
                    <nciodm:CDISCSynonym>FAC061-My Family Has Accepted My Illness</nciodm:CDISCSynonym>
                    <nciodm:CDISCDefinition>Functional Assessment of Cancer Therapy-Bone Marrow Transplant Version 4 - My family has accepted my illness.</nciodm:CDISCDefinition>
                    <nciodm:PreferredTerm>FACT-BMT Version 4 - My Family Has Accepted My Illness</nciodm:PreferredTerm>
                </EnumeratedItem>
                <EnumeratedItem CodedValue="FAC06112" nciodm:ExtCodeID="C147604">
                    <nciodm:CDISCSynonym>FAC061-Satisfied Communication Illness</nciodm:CDISCSynonym>
                    <nciodm:CDISCDefinition>Functional Assessment of Cancer Therapy-Bone Marrow Transplant Version 4 - I am satisfied with family communication about my illness.</nciodm:CDISCDefinition>
                    <nciodm:PreferredTerm>FACT-BMT Version 4 - Satisfied Communication Illness</nciodm:PreferredTerm>
                </EnumeratedItem>
                <EnumeratedItem CodedValue="FAC06113" nciodm:ExtCodeID="C147605">
                    <nciodm:CDISCSynonym>FAC061-I Feel Close to My Partner</nciodm:CDISCSynonym>
                    <nciodm:CDISCDefinition>Functional Assessment of Cancer Therapy-Bone Marrow Transplant Version 4 - I feel close to my partner (or the person who is my main support).</nciodm:CDISCDefinition>
                    <nciodm:PreferredTerm>FACT-BMT Version 4 - I Feel Close to My Partner</nciodm:PreferredTerm>
                </EnumeratedItem>
                <EnumeratedItem CodedValue="FAC06114" nciodm:ExtCodeID="C147606">
                    <nciodm:CDISCSynonym>FAC061-I Am Satisfied With My Sex Life</nciodm:CDISCSynonym>
                    <nciodm:CDISCDefinition>Functional Assessment of Cancer Therapy-Bone Marrow Transplant Version 4 - I am satisfied with my sex life.</nciodm:CDISCDefinition>
                    <nciodm:PreferredTerm>FACT-BMT Version 4 - I Am Satisfied With My Sex Life</nciodm:PreferredTerm>
                </EnumeratedItem>
                <EnumeratedItem CodedValue="FAC06115" nciodm:ExtCodeID="C147607">
                    <nciodm:CDISCSynonym>FAC061-I Feel Sad</nciodm:CDISCSynonym>
                    <nciodm:CDISCDefinition>Functional Assessment of Cancer Therapy-Bone Marrow Transplant Version 4 - I feel sad.</nciodm:CDISCDefinition>
                    <nciodm:PreferredTerm>FACT-BMT Version 4 - I Feel Sad</nciodm:PreferredTerm>
                </EnumeratedItem>
                <EnumeratedItem CodedValue="FAC06116" nciodm:ExtCodeID="C147608">
                    <nciodm:CDISCSynonym>FAC061-Satisfied With How I Am Coping</nciodm:CDISCSynonym>
                    <nciodm:CDISCDefinition>Functional Assessment of Cancer Therapy-Bone Marrow Transplant Version 4 - I am satisfied with how I am coping with my illness.</nciodm:CDISCDefinition>
                    <nciodm:PreferredTerm>FACT-BMT Version 4 - Satisfied With How I Am Coping</nciodm:PreferredTerm>
                </EnumeratedItem>
                <EnumeratedItem CodedValue="FAC06117" nciodm:ExtCodeID="C147609">
                    <nciodm:CDISCSynonym>FAC061-Losing Hope Against Illness</nciodm:CDISCSynonym>
                    <nciodm:CDISCDefinition>Functional Assessment of Cancer Therapy-Bone Marrow Transplant Version 4 - I am losing hope in the fight against my illness.</nciodm:CDISCDefinition>
                    <nciodm:PreferredTerm>FACT-BMT Version 4 - Losing Hope Against Illness</nciodm:PreferredTerm>
                </EnumeratedItem>
                <EnumeratedItem CodedValue="FAC06118" nciodm:ExtCodeID="C147610">
                    <nciodm:CDISCSynonym>FAC061-I Feel Nervous</nciodm:CDISCSynonym>
                    <nciodm:CDISCDefinition>Functional Assessment of Cancer Therapy-Bone Marrow Transplant Version 4 - I feel nervous.</nciodm:CDISCDefinition>
                    <nciodm:PreferredTerm>FACT-BMT Version 4 - I Feel Nervous</nciodm:PreferredTerm>
                </EnumeratedItem>
                <EnumeratedItem CodedValue="FAC06119" nciodm:ExtCodeID="C147611">
                    <nciodm:CDISCSynonym>FAC061-I Worry About Dying</nciodm:CDISCSynonym>
                    <nciodm:CDISCDefinition>Functional Assessment of Cancer Therapy-Bone Marrow Transplant Version 4 - I worry about dying.</nciodm:CDISCDefinition>
                    <nciodm:PreferredTerm>FACT-BMT Version 4 - I Worry About Dying</nciodm:PreferredTerm>
                </EnumeratedItem>
                <EnumeratedItem CodedValue="FAC06120" nciodm:ExtCodeID="C147612">
                    <nciodm:CDISCSynonym>FAC061-Worry My Condition Will Get Worse</nciodm:CDISCSynonym>
                    <nciodm:CDISCDefinition>Functional Assessment of Cancer Therapy-Bone Marrow Transplant Version 4 - I worry that my condition will get worse.</nciodm:CDISCDefinition>
                    <nciodm:PreferredTerm>FACT-BMT Version 4 - Worry My Condition Will Get Worse</nciodm:PreferredTerm>
                </EnumeratedItem>
                <EnumeratedItem CodedValue="FAC06121" nciodm:ExtCodeID="C147613">
                    <nciodm:CDISCSynonym>FAC061-I Am Able to Work</nciodm:CDISCSynonym>
                    <nciodm:CDISCDefinition>Functional Assessment of Cancer Therapy-Bone Marrow Transplant Version 4 - I am able to work (include work at home).</nciodm:CDISCDefinition>
                    <nciodm:PreferredTerm>FACT-BMT Version 4 - I Am Able to Work</nciodm:PreferredTerm>
                </EnumeratedItem>
                <EnumeratedItem CodedValue="FAC06122" nciodm:ExtCodeID="C147614">
                    <nciodm:CDISCSynonym>FAC061-My Work Is Fulfilling</nciodm:CDISCSynonym>
                    <nciodm:CDISCDefinition>Functional Assessment of Cancer Therapy-Bone Marrow Transplant Version 4 - My work (include work at home) is fulfilling.</nciodm:CDISCDefinition>
                    <nciodm:PreferredTerm>FACT-BMT Version 4 - My Work Is Fulfilling</nciodm:PreferredTerm>
                </EnumeratedItem>
                <EnumeratedItem CodedValue="FAC06123" nciodm:ExtCodeID="C147615">
                    <nciodm:CDISCSynonym>FAC061-I Am Able to Enjoy Life</nciodm:CDISCSynonym>
                    <nciodm:CDISCDefinition>Functional Assessment of Cancer Therapy-Bone Marrow Transplant Version 4 - I am able to enjoy life.</nciodm:CDISCDefinition>
                    <nciodm:PreferredTerm>FACT-BMT Version 4 - I Am Able to Enjoy Life</nciodm:PreferredTerm>
                </EnumeratedItem>
                <EnumeratedItem CodedValue="FAC06124" nciodm:ExtCodeID="C147616">
                    <nciodm:CDISCSynonym>FAC061-I Have Accepted My Illness</nciodm:CDISCSynonym>
                    <nciodm:CDISCDefinition>Functional Assessment of Cancer Therapy-Bone Marrow Transplant Version 4 - I have accepted my illness.</nciodm:CDISCDefinition>
                    <nciodm:PreferredTerm>FACT-BMT Version 4 - I Have Accepted My Illness</nciodm:PreferredTerm>
                </EnumeratedItem>
                <EnumeratedItem CodedValue="FAC06125" nciodm:ExtCodeID="C147617">
                    <nciodm:CDISCSynonym>FAC061-I Am Sleeping Well</nciodm:CDISCSynonym>
                    <nciodm:CDISCDefinition>Functional Assessment of Cancer Therapy-Bone Marrow Transplant Version 4 - I am sleeping well.</nciodm:CDISCDefinition>
                    <nciodm:PreferredTerm>FACT-BMT Version 4 - I Am Sleeping Well</nciodm:PreferredTerm>
                </EnumeratedItem>
                <EnumeratedItem CodedValue="FAC06126" nciodm:ExtCodeID="C147618">
                    <nciodm:CDISCSynonym>FAC061-Enjoy Things I Usually Do for Fun</nciodm:CDISCSynonym>
                    <nciodm:CDISCDefinition>Functional Assessment of Cancer Therapy-Bone Marrow Transplant Version 4 - I am enjoying the things I usually do for fun.</nciodm:CDISCDefinition>
                    <nciodm:PreferredTerm>FACT-BMT Version 4 - Enjoy Things I Usually Do for Fun</nciodm:PreferredTerm>
                </EnumeratedItem>
                <EnumeratedItem CodedValue="FAC06127" nciodm:ExtCodeID="C147619">
                    <nciodm:CDISCSynonym>FAC061-Content With Quality of My Life</nciodm:CDISCSynonym>
                    <nciodm:CDISCDefinition>Functional Assessment of Cancer Therapy-Bone Marrow Transplant Version 4 - I am content with the quality of my life right now.</nciodm:CDISCDefinition>
                    <nciodm:PreferredTerm>FACT-BMT Version 4 - Content With Quality of My Life</nciodm:PreferredTerm>
                </EnumeratedItem>
                <EnumeratedItem CodedValue="FAC06128" nciodm:ExtCodeID="C147620">
                    <nciodm:CDISCSynonym>FAC061-I Am Concerned About Keeping Job</nciodm:CDISCSynonym>
                    <nciodm:CDISCDefinition>Functional Assessment of Cancer Therapy-Bone Marrow Transplant Version 4 - I am concerned about keeping my job (include work at home).</nciodm:CDISCDefinition>
                    <nciodm:PreferredTerm>FACT-BMT Version 4 - I Am Concerned About Keeping Job</nciodm:PreferredTerm>
                </EnumeratedItem>
                <EnumeratedItem CodedValue="FAC06129" nciodm:ExtCodeID="C147621">
                    <nciodm:CDISCSynonym>FAC061-I Feel Distant From Other People</nciodm:CDISCSynonym>
                    <nciodm:CDISCDefinition>Functional Assessment of Cancer Therapy-Bone Marrow Transplant Version 4 - I feel distant from other people.</nciodm:CDISCDefinition>
                    <nciodm:PreferredTerm>FACT-BMT Version 4 - I Feel Distant From Other People</nciodm:PreferredTerm>
                </EnumeratedItem>
                <EnumeratedItem CodedValue="FAC06130" nciodm:ExtCodeID="C147622">
                    <nciodm:CDISCSynonym>FAC061-I Worry Transplant Will Not Work</nciodm:CDISCSynonym>
                    <nciodm:CDISCDefinition>Functional Assessment of Cancer Therapy-Bone Marrow Transplant Version 4 - I worry that the transplant will not work.</nciodm:CDISCDefinition>
                    <nciodm:PreferredTerm>FACT-BMT Version 4 - I Worry Transplant Will Not Work</nciodm:PreferredTerm>
                </EnumeratedItem>
                <EnumeratedItem CodedValue="FAC06131" nciodm:ExtCodeID="C147623">
                    <nciodm:CDISCSynonym>FAC061-Side Effect of Treatment Worse</nciodm:CDISCSynonym>
                    <nciodm:CDISCDefinition>Functional Assessment of Cancer Therapy-Bone Marrow Transplant Version 4 - The side effects of treatment are worse than I had imagined.</nciodm:CDISCDefinition>
                    <nciodm:PreferredTerm>FACT-BMT Version 4 - Side Effect of Treatment Worse</nciodm:PreferredTerm>
                </EnumeratedItem>
                <EnumeratedItem CodedValue="FAC06132" nciodm:ExtCodeID="C147624">
                    <nciodm:CDISCSynonym>FAC061-I Have a Good Appetite</nciodm:CDISCSynonym>
                    <nciodm:CDISCDefinition>Functional Assessment of Cancer Therapy-Bone Marrow Transplant Version 4 - I have a good appetite.</nciodm:CDISCDefinition>
                    <nciodm:PreferredTerm>FACT-BMT Version 4 - I Have a Good Appetite</nciodm:PreferredTerm>
                </EnumeratedItem>
                <EnumeratedItem CodedValue="FAC06133" nciodm:ExtCodeID="C147625">
                    <nciodm:CDISCSynonym>FAC061-I Like the Appearance of My Body</nciodm:CDISCSynonym>
                    <nciodm:CDISCDefinition>Functional Assessment of Cancer Therapy-Bone Marrow Transplant Version 4 - I like the appearance of my body.</nciodm:CDISCDefinition>
                    <nciodm:PreferredTerm>FACT-BMT Version 4 - I Like the Appearance of My Body</nciodm:PreferredTerm>
                </EnumeratedItem>
                <EnumeratedItem CodedValue="FAC06134" nciodm:ExtCodeID="C147626">
                    <nciodm:CDISCSynonym>FAC061-I Am Able to Get Around by Myself</nciodm:CDISCSynonym>
                    <nciodm:CDISCDefinition>Functional Assessment of Cancer Therapy-Bone Marrow Transplant Version 4 - I am able to get around by myself.</nciodm:CDISCDefinition>
                    <nciodm:PreferredTerm>FACT-BMT Version 4 - I Am Able to Get Around by Myself</nciodm:PreferredTerm>
                </EnumeratedItem>
                <EnumeratedItem CodedValue="FAC06135" nciodm:ExtCodeID="C147627">
                    <nciodm:CDISCSynonym>FAC061-I Get Tired Easily</nciodm:CDISCSynonym>
                    <nciodm:CDISCDefinition>Functional Assessment of Cancer Therapy-Bone Marrow Transplant Version 4 - I get tired easily.</nciodm:CDISCDefinition>
                    <nciodm:PreferredTerm>FACT-BMT Version 4 - I Get Tired Easily</nciodm:PreferredTerm>
                </EnumeratedItem>
                <EnumeratedItem CodedValue="FAC06136" nciodm:ExtCodeID="C147628">
                    <nciodm:CDISCSynonym>FAC061-I Am Interested in Sex</nciodm:CDISCSynonym>
                    <nciodm:CDISCDefinition>Functional Assessment of Cancer Therapy-Bone Marrow Transplant Version 4 - I am interested in sex.</nciodm:CDISCDefinition>
                    <nciodm:PreferredTerm>FACT-BMT Version 4 - I Am Interested in Sex</nciodm:PreferredTerm>
                </EnumeratedItem>
                <EnumeratedItem CodedValue="FAC06137" nciodm:ExtCodeID="C147629">
                    <nciodm:CDISCSynonym>FAC061-Concerns Ability to Have Children</nciodm:CDISCSynonym>
                    <nciodm:CDISCDefinition>Functional Assessment of Cancer Therapy-Bone Marrow Transplant Version 4 - I have concerns about my ability to have children.</nciodm:CDISCDefinition>
                    <nciodm:PreferredTerm>FACT-BMT Version 4 - Concerns Ability to Have Children</nciodm:PreferredTerm>
                </EnumeratedItem>
                <EnumeratedItem CodedValue="FAC06138" nciodm:ExtCodeID="C147630">
                    <nciodm:CDISCSynonym>FAC061-Confidence in My Nurse(s)</nciodm:CDISCSynonym>
                    <nciodm:CDISCDefinition>Functional Assessment of Cancer Therapy-Bone Marrow Transplant Version 4 - I have confidence in my nurse(s).</nciodm:CDISCDefinition>
                    <nciodm:PreferredTerm>FACT-BMT Version 4 - Confidence in My Nurse(s)</nciodm:PreferredTerm>
                </EnumeratedItem>
                <EnumeratedItem CodedValue="FAC06139" nciodm:ExtCodeID="C147631">
                    <nciodm:CDISCSynonym>FAC061-I Regret Bone Marrow Transplant</nciodm:CDISCSynonym>
                    <nciodm:CDISCDefinition>Functional Assessment of Cancer Therapy-Bone Marrow Transplant Version 4 - I regret having the bone marrow transplant.</nciodm:CDISCDefinition>
                    <nciodm:PreferredTerm>FACT-BMT Version 4 - I Regret Bone Marrow Transplant</nciodm:PreferredTerm>
                </EnumeratedItem>
                <EnumeratedItem CodedValue="FAC06140" nciodm:ExtCodeID="C147632">
                    <nciodm:CDISCSynonym>FAC061-I Can Remember Things</nciodm:CDISCSynonym>
                    <nciodm:CDISCDefinition>Functional Assessment of Cancer Therapy-Bone Marrow Transplant Version 4 - I can remember things.</nciodm:CDISCDefinition>
                    <nciodm:PreferredTerm>FACT-BMT Version 4 - I Can Remember Things</nciodm:PreferredTerm>
                </EnumeratedItem>
                <EnumeratedItem CodedValue="FAC06141" nciodm:ExtCodeID="C147633">
                    <nciodm:CDISCSynonym>FAC061-I Am Able to Concentrate</nciodm:CDISCSynonym>
                    <nciodm:CDISCDefinition>Functional Assessment of Cancer Therapy-Bone Marrow Transplant Version 4 - I am able to concentrate.</nciodm:CDISCDefinition>
                    <nciodm:PreferredTerm>FACT-BMT Version 4 - I Am Able to Concentrate</nciodm:PreferredTerm>
                </EnumeratedItem>
                <EnumeratedItem CodedValue="FAC06142" nciodm:ExtCodeID="C147634">
                    <nciodm:CDISCSynonym>FAC061-I Have Frequent Colds/Infections</nciodm:CDISCSynonym>
                    <nciodm:CDISCDefinition>Functional Assessment of Cancer Therapy-Bone Marrow Transplant Version 4 - I have frequent colds/infections.</nciodm:CDISCDefinition>
                    <nciodm:PreferredTerm>FACT-BMT Version 4 - I Have Frequent Colds/Infections</nciodm:PreferredTerm>
                </EnumeratedItem>
                <EnumeratedItem CodedValue="FAC06143" nciodm:ExtCodeID="C147635">
                    <nciodm:CDISCSynonym>FAC061-My Eyesight Is Blurry</nciodm:CDISCSynonym>
                    <nciodm:CDISCDefinition>Functional Assessment of Cancer Therapy-Bone Marrow Transplant Version 4 - My eyesight is blurry.</nciodm:CDISCDefinition>
                    <nciodm:PreferredTerm>FACT-BMT Version 4 - My Eyesight Is Blurry</nciodm:PreferredTerm>
                </EnumeratedItem>
                <EnumeratedItem CodedValue="FAC06144" nciodm:ExtCodeID="C147636">
                    <nciodm:CDISCSynonym>FAC061-Bothered by Change in Food Tastes</nciodm:CDISCSynonym>
                    <nciodm:CDISCDefinition>Functional Assessment of Cancer Therapy-Bone Marrow Transplant Version 4 - I am bothered by a change in the way food tastes.</nciodm:CDISCDefinition>
                    <nciodm:PreferredTerm>FACT-BMT Version 4 - Bothered by Change in Food Tastes</nciodm:PreferredTerm>
                </EnumeratedItem>
                <EnumeratedItem CodedValue="FAC06145" nciodm:ExtCodeID="C147637">
                    <nciodm:CDISCSynonym>FAC061-I Have Tremors</nciodm:CDISCSynonym>
                    <nciodm:CDISCDefinition>Functional Assessment of Cancer Therapy-Bone Marrow Transplant Version 4 - I have tremors.</nciodm:CDISCDefinition>
                    <nciodm:PreferredTerm>FACT-BMT Version 4 - I Have Tremors</nciodm:PreferredTerm>
                </EnumeratedItem>
                <EnumeratedItem CodedValue="FAC06146" nciodm:ExtCodeID="C147638">
                    <nciodm:CDISCSynonym>FAC061-I Have Been Short of Breath</nciodm:CDISCSynonym>
                    <nciodm:CDISCDefinition>Functional Assessment of Cancer Therapy-Bone Marrow Transplant Version 4 - I have been short of breath.</nciodm:CDISCDefinition>
                    <nciodm:PreferredTerm>FACT-BMT Version 4 - I Have Been Short of Breath</nciodm:PreferredTerm>
                </EnumeratedItem>
                <EnumeratedItem CodedValue="FAC06147" nciodm:ExtCodeID="C147639">
                    <nciodm:CDISCSynonym>FAC061-I Am Bothered by Skin Problems</nciodm:CDISCSynonym>
                    <nciodm:CDISCDefinition>Functional Assessment of Cancer Therapy-Bone Marrow Transplant Version 4 - I am bothered by skin problems.</nciodm:CDISCDefinition>
                    <nciodm:PreferredTerm>FACT-BMT Version 4 - I Am Bothered by Skin Problems</nciodm:PreferredTerm>
                </EnumeratedItem>
                <EnumeratedItem CodedValue="FAC06148" nciodm:ExtCodeID="C147640">
                    <nciodm:CDISCSynonym>FAC061-I Have Trouble With My Bowels</nciodm:CDISCSynonym>
                    <nciodm:CDISCDefinition>Functional Assessment of Cancer Therapy-Bone Marrow Transplant Version 4 - I have trouble with my bowels.</nciodm:CDISCDefinition>
                    <nciodm:PreferredTerm>FACT-BMT Version 4 - I Have Trouble With My Bowels</nciodm:PreferredTerm>
                </EnumeratedItem>
                <EnumeratedItem CodedValue="FAC06149" nciodm:ExtCodeID="C147641">
                    <nciodm:CDISCSynonym>FAC061-Illness Is Hardship for My Family</nciodm:CDISCSynonym>
                    <nciodm:CDISCDefinition>Functional Assessment of Cancer Therapy-Bone Marrow Transplant Version 4 - My illness is a personal hardship for my close family members.</nciodm:CDISCDefinition>
                    <nciodm:PreferredTerm>FACT-BMT Version 4 - Illness Is Hardship for My Family</nciodm:PreferredTerm>
                </EnumeratedItem>
                <EnumeratedItem CodedValue="FAC06150" nciodm:ExtCodeID="C147642">
                    <nciodm:CDISCSynonym>FAC061-Cost of Treatment Is Burden on Me</nciodm:CDISCSynonym>
                    <nciodm:CDISCDefinition>Functional Assessment of Cancer Therapy-Bone Marrow Transplant Version 4 - The cost of my treatment is a burden on me or my family.</nciodm:CDISCDefinition>
                    <nciodm:PreferredTerm>FACT-BMT Version 4 - Cost of Treatment Is Burden on Me</nciodm:PreferredTerm>
                </EnumeratedItem>
                <nciodm:CDISCSubmissionValue>FAC061TC</nciodm:CDISCSubmissionValue>
                <nciodm:CDISCSynonym>Functional Assessment of Cancer Therapy-Bone Marrow Transplant Version 4 Questionnaire Test Code</nciodm:CDISCSynonym>
                <nciodm:PreferredTerm>CDISC Questionnaire FACT-BMT Version 4 Test Code Terminology</nciodm:PreferredTerm>
            </CodeList>
            
