<CodeList xmlns="http://www.cdisc.org/ns/odm/v1.3" xmlns:nciodm="http://ncicb.nci.nih.gov/xml/odm/EVS/CDISC" xmlns:xs="http://www.w3.org/2001/XMLSchema-instance" OID="CL.C129097.FAC050TN" Name="National Comprehensive Cancer Network/Functional Assessment of Cancer Therapy-Ovarian Symptom Index-18 Version 2 Questionnaire Test Name" DataType="text" nciodm:ExtCodeID="C129097" nciodm:CodeListExtensible="No">
                <Description>
                    <TranslatedText xml:lang="en">National Comprehensive Cancer Network/Functional Assessment of Cancer Therapy-Ovarian Symptom Index-18 Version 2 test name.</TranslatedText>
                </Description>
                <EnumeratedItem CodedValue="FAC050-Bothered by Treatment Side Effect" nciodm:ExtCodeID="C129245">
                    <nciodm:CDISCSynonym>FAC050-Bothered by Treatment Side Effect</nciodm:CDISCSynonym>
                    <nciodm:CDISCDefinition>National Comprehensive Cancer Network/Functional Assessment of Cancer Therapy-Ovarian Symptom Index-18 Version 2 - I am bothered by side effects of treatment.</nciodm:CDISCDefinition>
                    <nciodm:PreferredTerm>NCCN-FACT FOSI-18 Version 2 - Bothered by Treatment Side Effect</nciodm:PreferredTerm>
                </EnumeratedItem>
                <EnumeratedItem CodedValue="FAC050-Content With Quality of My Life" nciodm:ExtCodeID="C129250">
                    <nciodm:CDISCSynonym>FAC050-Content With Quality of My Life</nciodm:CDISCSynonym>
                    <nciodm:CDISCDefinition>National Comprehensive Cancer Network/Functional Assessment of Cancer Therapy-Ovarian Symptom Index-18 Version 2 - I am content with the quality of my life right now.</nciodm:CDISCDefinition>
                    <nciodm:PreferredTerm>NCCN-FACT FOSI-18 Version 2 - Content With Quality of My Life</nciodm:PreferredTerm>
                </EnumeratedItem>
                <EnumeratedItem CodedValue="FAC050-I Am Able to Enjoy Life" nciodm:ExtCodeID="C129249">
                    <nciodm:CDISCSynonym>FAC050-I Am Able to Enjoy Life</nciodm:CDISCSynonym>
                    <nciodm:CDISCDefinition>National Comprehensive Cancer Network/Functional Assessment of Cancer Therapy-Ovarian Symptom Index-18 Version 2 - I am able to enjoy life.</nciodm:CDISCDefinition>
                    <nciodm:PreferredTerm>NCCN-FACT FOSI-18 Version 2 - I Am Able to Enjoy Life</nciodm:PreferredTerm>
                </EnumeratedItem>
                <EnumeratedItem CodedValue="FAC050-I Am Able to Get Around by Myself" nciodm:ExtCodeID="C129248">
                    <nciodm:CDISCSynonym>FAC050-I Am Able to Get Around by Myself</nciodm:CDISCSynonym>
                    <nciodm:CDISCDefinition>National Comprehensive Cancer Network/Functional Assessment of Cancer Therapy-Ovarian Symptom Index-18 Version 2 - I am able to get around by myself.</nciodm:CDISCDefinition>
                    <nciodm:PreferredTerm>NCCN-FACT FOSI-18 Version 2 - I Am Able to Get Around by Myself</nciodm:PreferredTerm>
                </EnumeratedItem>
                <EnumeratedItem CodedValue="FAC050-I Am Bothered by Constipation" nciodm:ExtCodeID="C129238">
                    <nciodm:CDISCSynonym>FAC050-I Am Bothered by Constipation</nciodm:CDISCSynonym>
                    <nciodm:CDISCDefinition>National Comprehensive Cancer Network/Functional Assessment of Cancer Therapy-Ovarian Symptom Index-18 Version 2 - I am bothered by constipation.</nciodm:CDISCDefinition>
                    <nciodm:PreferredTerm>NCCN-FACT FOSI-18 Version 2 - I Am Bothered by Constipation</nciodm:PreferredTerm>
                </EnumeratedItem>
                <EnumeratedItem CodedValue="FAC050-I Am Bothered by Hair Loss" nciodm:ExtCodeID="C129244">
                    <nciodm:CDISCSynonym>FAC050-I Am Bothered by Hair Loss</nciodm:CDISCSynonym>
                    <nciodm:CDISCDefinition>National Comprehensive Cancer Network/Functional Assessment of Cancer Therapy-Ovarian Symptom Index-18 Version 2 - I am bothered by hair loss.</nciodm:CDISCDefinition>
                    <nciodm:PreferredTerm>NCCN-FACT FOSI-18 Version 2 - I Am Bothered by Hair Loss</nciodm:PreferredTerm>
                </EnumeratedItem>
                <EnumeratedItem CodedValue="FAC050-I Am Bothered by Skin Problems" nciodm:ExtCodeID="C129247">
                    <nciodm:CDISCSynonym>FAC050-I Am Bothered by Skin Problems</nciodm:CDISCSynonym>
                    <nciodm:CDISCDefinition>National Comprehensive Cancer Network/Functional Assessment of Cancer Therapy-Ovarian Symptom Index-18 Version 2 - I am bothered by skin problems.</nciodm:CDISCDefinition>
                    <nciodm:PreferredTerm>NCCN-FACT FOSI-18 Version 2 - I Am Bothered by Skin Problems</nciodm:PreferredTerm>
                </EnumeratedItem>
                <EnumeratedItem CodedValue="FAC050-I Am Sleeping Well" nciodm:ExtCodeID="C129241">
                    <nciodm:CDISCSynonym>FAC050-I Am Sleeping Well</nciodm:CDISCSynonym>
                    <nciodm:CDISCDefinition>National Comprehensive Cancer Network/Functional Assessment of Cancer Therapy-Ovarian Symptom Index-18 Version 2 - I am sleeping well.</nciodm:CDISCDefinition>
                    <nciodm:PreferredTerm>NCCN-FACT FOSI-18 Version 2 - I Am Sleeping Well</nciodm:PreferredTerm>
                </EnumeratedItem>
                <EnumeratedItem CodedValue="FAC050-I Feel Fatigued" nciodm:ExtCodeID="C129237">
                    <nciodm:CDISCSynonym>FAC050-I Feel Fatigued</nciodm:CDISCSynonym>
                    <nciodm:CDISCDefinition>National Comprehensive Cancer Network/Functional Assessment of Cancer Therapy-Ovarian Symptom Index-18 Version 2 - I feel fatigued.</nciodm:CDISCDefinition>
                    <nciodm:PreferredTerm>NCCN-FACT FOSI-18 Version 2 - I Feel Fatigued</nciodm:PreferredTerm>
                </EnumeratedItem>
                <EnumeratedItem CodedValue="FAC050-I Feel Ill" nciodm:ExtCodeID="C129235">
                    <nciodm:CDISCSynonym>FAC050-I Feel Ill</nciodm:CDISCSynonym>
                    <nciodm:CDISCDefinition>National Comprehensive Cancer Network/Functional Assessment of Cancer Therapy-Ovarian Symptom Index-18 Version 2 - I feel ill.</nciodm:CDISCDefinition>
                    <nciodm:PreferredTerm>NCCN-FACT FOSI-18 Version 2 - I Feel Ill</nciodm:PreferredTerm>
                </EnumeratedItem>
                <EnumeratedItem CodedValue="FAC050-I Have a Lack of Energy" nciodm:ExtCodeID="C129233">
                    <nciodm:CDISCSynonym>FAC050-I Have a Lack of Energy</nciodm:CDISCSynonym>
                    <nciodm:CDISCDefinition>National Comprehensive Cancer Network/Functional Assessment of Cancer Therapy-Ovarian Symptom Index-18 Version 2 - I have a lack of energy.</nciodm:CDISCDefinition>
                    <nciodm:PreferredTerm>NCCN-FACT FOSI-18 Version 2 - I Have a Lack of Energy</nciodm:PreferredTerm>
                </EnumeratedItem>
                <EnumeratedItem CodedValue="FAC050-I Have Been Vomiting" nciodm:ExtCodeID="C129246">
                    <nciodm:CDISCSynonym>FAC050-I Have Been Vomiting</nciodm:CDISCSynonym>
                    <nciodm:CDISCDefinition>National Comprehensive Cancer Network/Functional Assessment of Cancer Therapy-Ovarian Symptom Index-18 Version 2 - I have been vomiting.</nciodm:CDISCDefinition>
                    <nciodm:PreferredTerm>NCCN-FACT FOSI-18 Version 2 - I Have Been Vomiting</nciodm:PreferredTerm>
                </EnumeratedItem>
                <EnumeratedItem CodedValue="FAC050-I Have Control of My Bowels" nciodm:ExtCodeID="C129240">
                    <nciodm:CDISCSynonym>FAC050-I Have Control of My Bowels</nciodm:CDISCSynonym>
                    <nciodm:CDISCDefinition>National Comprehensive Cancer Network/Functional Assessment of Cancer Therapy-Ovarian Symptom Index-18 Version 2 - I have control of my bowels.</nciodm:CDISCDefinition>
                    <nciodm:PreferredTerm>NCCN-FACT FOSI-18 Version 2 - I Have Control of My Bowels</nciodm:PreferredTerm>
                </EnumeratedItem>
                <EnumeratedItem CodedValue="FAC050-I Have Cramps in My Stomach Area" nciodm:ExtCodeID="C129236">
                    <nciodm:CDISCSynonym>FAC050-I Have Cramps in My Stomach Area</nciodm:CDISCSynonym>
                    <nciodm:CDISCDefinition>National Comprehensive Cancer Network/Functional Assessment of Cancer Therapy-Ovarian Symptom Index-18 Version 2 - I have cramps in my stomach area.</nciodm:CDISCDefinition>
                    <nciodm:PreferredTerm>NCCN-FACT FOSI-18 Version 2 - I Have Cramps in My Stomach Area</nciodm:PreferredTerm>
                </EnumeratedItem>
                <EnumeratedItem CodedValue="FAC050-I Have Nausea" nciodm:ExtCodeID="C129243">
                    <nciodm:CDISCSynonym>FAC050-I Have Nausea</nciodm:CDISCSynonym>
                    <nciodm:CDISCDefinition>National Comprehensive Cancer Network/Functional Assessment of Cancer Therapy-Ovarian Symptom Index-18 Version 2 - I have nausea.</nciodm:CDISCDefinition>
                    <nciodm:PreferredTerm>NCCN-FACT FOSI-18 Version 2 - I Have Nausea</nciodm:PreferredTerm>
                </EnumeratedItem>
                <EnumeratedItem CodedValue="FAC050-I Have Pain" nciodm:ExtCodeID="C129234">
                    <nciodm:CDISCSynonym>FAC050-I Have Pain</nciodm:CDISCSynonym>
                    <nciodm:CDISCDefinition>National Comprehensive Cancer Network/Functional Assessment of Cancer Therapy-Ovarian Symptom Index-18 Version 2 - I have pain.</nciodm:CDISCDefinition>
                    <nciodm:PreferredTerm>NCCN-FACT FOSI-18 Version 2 - I Have Pain</nciodm:PreferredTerm>
                </EnumeratedItem>
                <EnumeratedItem CodedValue="FAC050-I Have Swelling in Stomach Area" nciodm:ExtCodeID="C129239">
                    <nciodm:CDISCSynonym>FAC050-I Have Swelling in Stomach Area</nciodm:CDISCSynonym>
                    <nciodm:CDISCDefinition>National Comprehensive Cancer Network/Functional Assessment of Cancer Therapy-Ovarian Symptom Index-18 Version 2 - I have swelling in my stomach area.</nciodm:CDISCDefinition>
                    <nciodm:PreferredTerm>NCCN-FACT FOSI-18 Version 2 - I Have Swelling in Stomach Area</nciodm:PreferredTerm>
                </EnumeratedItem>
                <EnumeratedItem CodedValue="FAC050-Worry My Condition Will Get Worse" nciodm:ExtCodeID="C129242">
                    <nciodm:CDISCSynonym>FAC050-Worry My Condition Will Get Worse</nciodm:CDISCSynonym>
                    <nciodm:CDISCDefinition>National Comprehensive Cancer Network/Functional Assessment of Cancer Therapy-Ovarian Symptom Index-18 Version 2 - I worry that my condition will get worse.</nciodm:CDISCDefinition>
                    <nciodm:PreferredTerm>NCCN-FACT FOSI-18 Version 2 - Worry My Condition Will Get Worse</nciodm:PreferredTerm>
                </EnumeratedItem>
                <nciodm:CDISCSubmissionValue>FAC050TN</nciodm:CDISCSubmissionValue>
                <nciodm:CDISCSynonym>National Comprehensive Cancer Network/Functional Assessment of Cancer Therapy-Ovarian Symptom Index-18 Version 2 Questionnaire Test Name</nciodm:CDISCSynonym>
                <nciodm:PreferredTerm>CDISC Questionnaire NCCN-FACT FOSI-18 Version 2 Test Name Terminology</nciodm:PreferredTerm>
            </CodeList>
            
