<CodeList xmlns="http://www.cdisc.org/ns/odm/v1.3" xmlns:nciodm="http://ncicb.nci.nih.gov/xml/odm/EVS/CDISC" xmlns:xs="http://www.w3.org/2001/XMLSchema-instance" OID="CL.C116108.DDTESTCD" Name="Death Details Test Code" DataType="text" nciodm:ExtCodeID="C116108" nciodm:CodeListExtensible="Yes">
                <Description>
                    <TranslatedText xml:lang="en">Terminology relevant to the death detail assessment short name.</TranslatedText>
                </Description>
                <EnumeratedItem CodedValue="LOCDTH" nciodm:ExtCodeID="C124331">
                    <nciodm:CDISCSynonym>Location of Death</nciodm:CDISCSynonym>
                    <nciodm:CDISCDefinition>The physical location at which the subject ceased to live.</nciodm:CDISCDefinition>
                    <nciodm:PreferredTerm>Location of Death</nciodm:PreferredTerm>
                </EnumeratedItem>
                <EnumeratedItem CodedValue="PRCDTH" nciodm:ExtCodeID="C99531">
                    <nciodm:CDISCSynonym>Primary Cause of Death</nciodm:CDISCSynonym>
                    <nciodm:CDISCDefinition>The primary significant event which ultimately led to death.</nciodm:CDISCDefinition>
                    <nciodm:PreferredTerm>Primary Cause of Death</nciodm:PreferredTerm>
                </EnumeratedItem>
                <EnumeratedItem CodedValue="SECDTH" nciodm:ExtCodeID="C116142">
                    <nciodm:CDISCSynonym>Secondary Cause of Death</nciodm:CDISCSynonym>
                    <nciodm:CDISCDefinition>The secondary significant event which ultimately led to death.</nciodm:CDISCDefinition>
                    <nciodm:PreferredTerm>Secondary Cause of Death</nciodm:PreferredTerm>
                </EnumeratedItem>
                <nciodm:CDISCSubmissionValue>DDTESTCD</nciodm:CDISCSubmissionValue>
                <nciodm:CDISCSynonym>Death Details Test Code</nciodm:CDISCSynonym>
                <nciodm:PreferredTerm>CDISC SDTM Death Details Test Code Terminology</nciodm:PreferredTerm>
            </CodeList>
            
