<CodeList xmlns="http://www.cdisc.org/ns/odm/v1.3" xmlns:nciodm="http://ncicb.nci.nih.gov/xml/odm/EVS/CDISC" xmlns:xs="http://www.w3.org/2001/XMLSchema-instance" OID="CL.C132516.NSAA1TN" Name="North Star Ambulatory Assessment Clinical Classification Test Name" DataType="text" nciodm:ExtCodeID="C132516" nciodm:CodeListExtensible="No">
                <Description>
                    <TranslatedText xml:lang="en">North Star Ambulatory Assessment test name.</TranslatedText>
                </Description>
                <EnumeratedItem CodedValue="NSAA1-Climb Box Step - Left" nciodm:ExtCodeID="C132542">
                    <nciodm:CDISCSynonym>NSAA1-Climb Box Step - Left</nciodm:CDISCSynonym>
                    <nciodm:CDISCDefinition>North Star Ambulatory Assessment - Can you step onto the top of the box using your left leg first?</nciodm:CDISCDefinition>
                    <nciodm:PreferredTerm>NSAA - Climb Box Step - Left</nciodm:PreferredTerm>
                </EnumeratedItem>
                <EnumeratedItem CodedValue="NSAA1-Climb Box Step - Right" nciodm:ExtCodeID="C132541">
                    <nciodm:CDISCSynonym>NSAA1-Climb Box Step - Right</nciodm:CDISCSynonym>
                    <nciodm:CDISCDefinition>North Star Ambulatory Assessment - Can you step onto the top of the box using your right leg first?</nciodm:CDISCDefinition>
                    <nciodm:PreferredTerm>NSAA - Climb Box Step - Right</nciodm:PreferredTerm>
                </EnumeratedItem>
                <EnumeratedItem CodedValue="NSAA1-Descend Box Step - Left" nciodm:ExtCodeID="C132544">
                    <nciodm:CDISCSynonym>NSAA1-Descend Box Step - Left</nciodm:CDISCSynonym>
                    <nciodm:CDISCDefinition>North Star Ambulatory Assessment - Can you step down from the box using your left leg first?</nciodm:CDISCDefinition>
                    <nciodm:PreferredTerm>NSAA - Descend Box Step - Left</nciodm:PreferredTerm>
                </EnumeratedItem>
                <EnumeratedItem CodedValue="NSAA1-Descend Box Step - Right" nciodm:ExtCodeID="C132543">
                    <nciodm:CDISCSynonym>NSAA1-Descend Box Step - Right</nciodm:CDISCSynonym>
                    <nciodm:CDISCDefinition>North Star Ambulatory Assessment - Can you step down from the box using your right leg first?</nciodm:CDISCDefinition>
                    <nciodm:PreferredTerm>NSAA - Descend Box Step - Right</nciodm:PreferredTerm>
                </EnumeratedItem>
                <EnumeratedItem CodedValue="NSAA1-Gets to Sitting" nciodm:ExtCodeID="C132545">
                    <nciodm:CDISCSynonym>NSAA1-Gets to Sitting</nciodm:CDISCSynonym>
                    <nciodm:CDISCDefinition>North Star Ambulatory Assessment - Can you get from lying to sitting?</nciodm:CDISCDefinition>
                    <nciodm:PreferredTerm>NSAA - Gets to Sitting</nciodm:PreferredTerm>
                </EnumeratedItem>
                <EnumeratedItem CodedValue="NSAA1-Hop Left Leg" nciodm:ExtCodeID="C132552">
                    <nciodm:CDISCSynonym>NSAA1-Hop Left Leg</nciodm:CDISCSynonym>
                    <nciodm:CDISCDefinition>North Star Ambulatory Assessment - Can you hop on your left leg?</nciodm:CDISCDefinition>
                    <nciodm:PreferredTerm>NSAA - Hop Left Leg</nciodm:PreferredTerm>
                </EnumeratedItem>
                <EnumeratedItem CodedValue="NSAA1-Hop Right Leg" nciodm:ExtCodeID="C132551">
                    <nciodm:CDISCSynonym>NSAA1-Hop Right Leg</nciodm:CDISCSynonym>
                    <nciodm:CDISCDefinition>North Star Ambulatory Assessment - Can you hop on your right leg?</nciodm:CDISCDefinition>
                    <nciodm:PreferredTerm>NSAA - Hop Right Leg</nciodm:PreferredTerm>
                </EnumeratedItem>
                <EnumeratedItem CodedValue="NSAA1-Jump" nciodm:ExtCodeID="C132550">
                    <nciodm:CDISCSynonym>NSAA1-Jump</nciodm:CDISCSynonym>
                    <nciodm:CDISCDefinition>North Star Ambulatory Assessment - How high can you jump?</nciodm:CDISCDefinition>
                    <nciodm:PreferredTerm>NSAA - Jump</nciodm:PreferredTerm>
                </EnumeratedItem>
                <EnumeratedItem CodedValue="NSAA1-Lifts Head" nciodm:ExtCodeID="C132548">
                    <nciodm:CDISCSynonym>NSAA1-Lifts Head</nciodm:CDISCSynonym>
                    <nciodm:CDISCDefinition>North Star Ambulatory Assessment - Lift your head to look at your toes keeping your arms folded.</nciodm:CDISCDefinition>
                    <nciodm:PreferredTerm>NSAA - Lifts Head</nciodm:PreferredTerm>
                </EnumeratedItem>
                <EnumeratedItem CodedValue="NSAA1-Rise From Floor" nciodm:ExtCodeID="C132546">
                    <nciodm:CDISCSynonym>NSAA1-Rise From Floor</nciodm:CDISCSynonym>
                    <nciodm:CDISCDefinition>North Star Ambulatory Assessment - Get up from the floor using as little support as possible and as fast as you can (from supine).</nciodm:CDISCDefinition>
                    <nciodm:PreferredTerm>NSAA - Rise From Floor</nciodm:PreferredTerm>
                </EnumeratedItem>
                <EnumeratedItem CodedValue="NSAA1-Rise From Floor Time" nciodm:ExtCodeID="C132547">
                    <nciodm:CDISCSynonym>NSAA1-Rise From Floor Time</nciodm:CDISCSynonym>
                    <nciodm:CDISCDefinition>North Star Ambulatory Assessment - Time to get up from the floor using as little support as possible and as fast as you can (from supine) (seconds).</nciodm:CDISCDefinition>
                    <nciodm:PreferredTerm>NSAA - Rise From Floor Time</nciodm:PreferredTerm>
                </EnumeratedItem>
                <EnumeratedItem CodedValue="NSAA1-Run (10m)" nciodm:ExtCodeID="C132553">
                    <nciodm:CDISCSynonym>NSAA1-Run (10m)</nciodm:CDISCSynonym>
                    <nciodm:CDISCDefinition>North Star Ambulatory Assessment - Run as fast as you can to&#8230;..(give point).</nciodm:CDISCDefinition>
                    <nciodm:PreferredTerm>NSAA - Run (10m)</nciodm:PreferredTerm>
                </EnumeratedItem>
                <EnumeratedItem CodedValue="NSAA1-Run (10m) Time" nciodm:ExtCodeID="C132554">
                    <nciodm:CDISCSynonym>NSAA1-Run (10m) Time</nciodm:CDISCSynonym>
                    <nciodm:CDISCDefinition>North Star Ambulatory Assessment - Time to run as fast as you can (seconds).</nciodm:CDISCDefinition>
                    <nciodm:PreferredTerm>NSAA - Run (10m) Time</nciodm:PreferredTerm>
                </EnumeratedItem>
                <EnumeratedItem CodedValue="NSAA1-Stand" nciodm:ExtCodeID="C132536">
                    <nciodm:CDISCSynonym>NSAA1-Stand</nciodm:CDISCSynonym>
                    <nciodm:CDISCDefinition>North Star Ambulatory Assessment - Can you stand up tall for me for as long as you can and as still as you can.</nciodm:CDISCDefinition>
                    <nciodm:PreferredTerm>NSAA - Stand</nciodm:PreferredTerm>
                </EnumeratedItem>
                <EnumeratedItem CodedValue="NSAA1-Stand on One Leg - Left" nciodm:ExtCodeID="C132540">
                    <nciodm:CDISCSynonym>NSAA1-Stand on One Leg - Left</nciodm:CDISCSynonym>
                    <nciodm:CDISCDefinition>North Star Ambulatory Assessment - Can you stand on your left leg for as long as you can?</nciodm:CDISCDefinition>
                    <nciodm:PreferredTerm>NSAA - Stand on One Leg - Left</nciodm:PreferredTerm>
                </EnumeratedItem>
                <EnumeratedItem CodedValue="NSAA1-Stand on One Leg - Right" nciodm:ExtCodeID="C132539">
                    <nciodm:CDISCSynonym>NSAA1-Stand on One Leg - Right</nciodm:CDISCSynonym>
                    <nciodm:CDISCDefinition>North Star Ambulatory Assessment - Can you stand on your right leg for as long as you can?</nciodm:CDISCDefinition>
                    <nciodm:PreferredTerm>NSAA - Stand on One Leg - Right</nciodm:PreferredTerm>
                </EnumeratedItem>
                <EnumeratedItem CodedValue="NSAA1-Stand Up From Chair" nciodm:ExtCodeID="C132538">
                    <nciodm:CDISCSynonym>NSAA1-Stand Up From Chair</nciodm:CDISCSynonym>
                    <nciodm:CDISCDefinition>North Star Ambulatory Assessment - Stand up from the chair keeping your arms folded if you can.</nciodm:CDISCDefinition>
                    <nciodm:PreferredTerm>NSAA - Stand Up From Chair</nciodm:PreferredTerm>
                </EnumeratedItem>
                <EnumeratedItem CodedValue="NSAA1-Stands on Heels" nciodm:ExtCodeID="C132549">
                    <nciodm:CDISCSynonym>NSAA1-Stands on Heels</nciodm:CDISCSynonym>
                    <nciodm:CDISCDefinition>North Star Ambulatory Assessment - Can you stand on your heels?</nciodm:CDISCDefinition>
                    <nciodm:PreferredTerm>NSAA - Stands on Heels</nciodm:PreferredTerm>
                </EnumeratedItem>
                <EnumeratedItem CodedValue="NSAA1-Total" nciodm:ExtCodeID="C132555">
                    <nciodm:CDISCSynonym>NSAA1-Total</nciodm:CDISCSynonym>
                    <nciodm:CDISCDefinition>North Star Ambulatory Assessment - Total.</nciodm:CDISCDefinition>
                    <nciodm:PreferredTerm>NSAA - Total</nciodm:PreferredTerm>
                </EnumeratedItem>
                <EnumeratedItem CodedValue="NSAA1-Walk" nciodm:ExtCodeID="C132537">
                    <nciodm:CDISCSynonym>NSAA1-Walk</nciodm:CDISCSynonym>
                    <nciodm:CDISCDefinition>North Star Ambulatory Assessment - Can you walk from A to B (state to and where from) for me.</nciodm:CDISCDefinition>
                    <nciodm:PreferredTerm>NSAA - Walk</nciodm:PreferredTerm>
                </EnumeratedItem>
                <nciodm:CDISCSubmissionValue>NSAA1TN</nciodm:CDISCSubmissionValue>
                <nciodm:CDISCSynonym>North Star Ambulatory Assessment Clinical Classification Test Name</nciodm:CDISCSynonym>
                <nciodm:PreferredTerm>CDISC Clinical Classification NSAA Test Name Terminology</nciodm:PreferredTerm>
            </CodeList>
            
