<CodeList xmlns="http://www.cdisc.org/ns/odm/v1.3" xmlns:nciodm="http://ncicb.nci.nih.gov/xml/odm/EVS/CDISC" xmlns:xs="http://www.w3.org/2001/XMLSchema-instance" OID="CL.C78732.DATESTCD" Name="Drug Accountability Test Code" DataType="text" nciodm:ExtCodeID="C78732" nciodm:CodeListExtensible="Yes">
                <Description>
                    <TranslatedText xml:lang="en">The short name, or code, of the test for the drug accountability assessment.</TranslatedText>
                </Description>
                <EnumeratedItem CodedValue="DISPAMT" nciodm:ExtCodeID="C78721">
                    <nciodm:CDISCSynonym>Dispensed Amount</nciodm:CDISCSynonym>
                    <nciodm:CDISCDefinition>The quantity of a product that has been dispensed. (NCI)</nciodm:CDISCDefinition>
                    <nciodm:PreferredTerm>Dispensed Amount</nciodm:PreferredTerm>
                </EnumeratedItem>
                <EnumeratedItem CodedValue="RETAMT" nciodm:ExtCodeID="C78722">
                    <nciodm:CDISCSynonym>Returned Amount</nciodm:CDISCSynonym>
                    <nciodm:CDISCDefinition>The quantity of a product that has been returned. (NCI)</nciodm:CDISCDefinition>
                    <nciodm:PreferredTerm>Returned Amount</nciodm:PreferredTerm>
                </EnumeratedItem>
                <nciodm:CDISCSubmissionValue>DATESTCD</nciodm:CDISCSubmissionValue>
                <nciodm:CDISCSynonym>Drug Accountability Test Code</nciodm:CDISCSynonym>
                <nciodm:PreferredTerm>CDISC SDTM Drug Accountability Test Terminology by Code</nciodm:PreferredTerm>
            </CodeList>
            
