<CodeList xmlns="http://www.cdisc.org/ns/odm/v1.3" xmlns:nciodm="http://ncicb.nci.nih.gov/xml/odm/EVS/CDISC" xmlns:xs="http://www.w3.org/2001/XMLSchema-instance" OID="CL.C147543.FAC070TN" Name="Functional Assessment of Chronic Illness Therapy-Fatigue Scale Version 4 Questionnaire Test Name" DataType="text" nciodm:ExtCodeID="C147543" nciodm:CodeListExtensible="No">
                <Description>
                    <TranslatedText xml:lang="en">Functional Assessment of Chronic Illness Therapy-Fatigue Scale Version 4 test name.</TranslatedText>
                </Description>
                <EnumeratedItem CodedValue="FAC070-Able to Do My Usual Activities" nciodm:ExtCodeID="C147680">
                    <nciodm:CDISCSynonym>FAC070-Able to Do My Usual Activities</nciodm:CDISCSynonym>
                    <nciodm:CDISCDefinition>Functional Assessment of Chronic Illness Therapy-Fatigue Scale Version 4 - I am able to do my usual activities.</nciodm:CDISCDefinition>
                    <nciodm:PreferredTerm>FACIT-Fatigue Version 4 - Able to Do My Usual Activities</nciodm:PreferredTerm>
                </EnumeratedItem>
                <EnumeratedItem CodedValue="FAC070-Frustrated by Being Too Tired" nciodm:ExtCodeID="C147684">
                    <nciodm:CDISCSynonym>FAC070-Frustrated by Being Too Tired</nciodm:CDISCSynonym>
                    <nciodm:CDISCDefinition>Functional Assessment of Chronic Illness Therapy-Fatigue Scale Version 4 - I am frustrated by being too tired to do the things I want to do.</nciodm:CDISCDefinition>
                    <nciodm:PreferredTerm>FACIT-Fatigue Version 4 - Frustrated by Being Too Tired</nciodm:PreferredTerm>
                </EnumeratedItem>
                <EnumeratedItem CodedValue="FAC070-I Am Too Tired to Eat" nciodm:ExtCodeID="C147682">
                    <nciodm:CDISCSynonym>FAC070-I Am Too Tired to Eat</nciodm:CDISCSynonym>
                    <nciodm:CDISCDefinition>Functional Assessment of Chronic Illness Therapy-Fatigue Scale Version 4 - I am too tired to eat.</nciodm:CDISCDefinition>
                    <nciodm:PreferredTerm>FACIT-Fatigue Version 4 - I Am Too Tired to Eat</nciodm:PreferredTerm>
                </EnumeratedItem>
                <EnumeratedItem CodedValue="FAC070-I Feel Fatigued" nciodm:ExtCodeID="C147673">
                    <nciodm:CDISCSynonym>FAC070-I Feel Fatigued</nciodm:CDISCSynonym>
                    <nciodm:CDISCDefinition>Functional Assessment of Chronic Illness Therapy-Fatigue Scale Version 4 - I feel fatigued.</nciodm:CDISCDefinition>
                    <nciodm:PreferredTerm>FACIT-Fatigue Version 4 - I Feel Fatigued</nciodm:PreferredTerm>
                </EnumeratedItem>
                <EnumeratedItem CodedValue="FAC070-I Feel Listless" nciodm:ExtCodeID="C147675">
                    <nciodm:CDISCSynonym>FAC070-I Feel Listless</nciodm:CDISCSynonym>
                    <nciodm:CDISCDefinition>Functional Assessment of Chronic Illness Therapy-Fatigue Scale Version 4 - I feel listless ("washed out").</nciodm:CDISCDefinition>
                    <nciodm:PreferredTerm>FACIT-Fatigue Version 4 - I Feel Listless</nciodm:PreferredTerm>
                </EnumeratedItem>
                <EnumeratedItem CodedValue="FAC070-I Feel Tired" nciodm:ExtCodeID="C147676">
                    <nciodm:CDISCSynonym>FAC070-I Feel Tired</nciodm:CDISCSynonym>
                    <nciodm:CDISCDefinition>Functional Assessment of Chronic Illness Therapy-Fatigue Scale Version 4 - I feel tired.</nciodm:CDISCDefinition>
                    <nciodm:PreferredTerm>FACIT-Fatigue Version 4 - I Feel Tired</nciodm:PreferredTerm>
                </EnumeratedItem>
                <EnumeratedItem CodedValue="FAC070-I Feel Weak All Over" nciodm:ExtCodeID="C147674">
                    <nciodm:CDISCSynonym>FAC070-I Feel Weak All Over</nciodm:CDISCSynonym>
                    <nciodm:CDISCDefinition>Functional Assessment of Chronic Illness Therapy-Fatigue Scale Version 4 - I feel weak all over.</nciodm:CDISCDefinition>
                    <nciodm:PreferredTerm>FACIT-Fatigue Version 4 - I Feel Weak All Over</nciodm:PreferredTerm>
                </EnumeratedItem>
                <EnumeratedItem CodedValue="FAC070-I Have Energy" nciodm:ExtCodeID="C147679">
                    <nciodm:CDISCSynonym>FAC070-I Have Energy</nciodm:CDISCSynonym>
                    <nciodm:CDISCDefinition>Functional Assessment of Chronic Illness Therapy-Fatigue Scale Version 4 - I have energy.</nciodm:CDISCDefinition>
                    <nciodm:PreferredTerm>FACIT-Fatigue Version 4 - I Have Energy</nciodm:PreferredTerm>
                </EnumeratedItem>
                <EnumeratedItem CodedValue="FAC070-I Need to Sleep During the Day" nciodm:ExtCodeID="C147681">
                    <nciodm:CDISCSynonym>FAC070-I Need to Sleep During the Day</nciodm:CDISCSynonym>
                    <nciodm:CDISCDefinition>Functional Assessment of Chronic Illness Therapy-Fatigue Scale Version 4 - I need to sleep during the day.</nciodm:CDISCDefinition>
                    <nciodm:PreferredTerm>FACIT-Fatigue Version 4 - I Need to Sleep During the Day</nciodm:PreferredTerm>
                </EnumeratedItem>
                <EnumeratedItem CodedValue="FAC070-Limit Social Activity, I am Tired" nciodm:ExtCodeID="C147685">
                    <nciodm:CDISCSynonym>FAC070-Limit Social Activity, I am Tired</nciodm:CDISCSynonym>
                    <nciodm:CDISCDefinition>Functional Assessment of Chronic Illness Therapy-Fatigue Scale Version 4 - I have to limit my social activity because I am tired.</nciodm:CDISCDefinition>
                    <nciodm:PreferredTerm>FACIT-Fatigue Version 4 - Limit Social Activity, I am Tired</nciodm:PreferredTerm>
                </EnumeratedItem>
                <EnumeratedItem CodedValue="FAC070-Need Help Doing Usual Activities" nciodm:ExtCodeID="C147683">
                    <nciodm:CDISCSynonym>FAC070-Need Help Doing Usual Activities</nciodm:CDISCSynonym>
                    <nciodm:CDISCDefinition>Functional Assessment of Chronic Illness Therapy-Fatigue Scale Version 4 - I need help doing my usual activities.</nciodm:CDISCDefinition>
                    <nciodm:PreferredTerm>FACIT-Fatigue Version 4 - Need Help Doing Usual Activities</nciodm:PreferredTerm>
                </EnumeratedItem>
                <EnumeratedItem CodedValue="FAC070-Trouble Finishing Things" nciodm:ExtCodeID="C147678">
                    <nciodm:CDISCSynonym>FAC070-Trouble Finishing Things</nciodm:CDISCSynonym>
                    <nciodm:CDISCDefinition>Functional Assessment of Chronic Illness Therapy-Fatigue Scale Version 4 - I have trouble finishing things because I am tired.</nciodm:CDISCDefinition>
                    <nciodm:PreferredTerm>FACIT-Fatigue Version 4 - Trouble Finishing Things</nciodm:PreferredTerm>
                </EnumeratedItem>
                <EnumeratedItem CodedValue="FAC070-Trouble Starting Things" nciodm:ExtCodeID="C147677">
                    <nciodm:CDISCSynonym>FAC070-Trouble Starting Things</nciodm:CDISCSynonym>
                    <nciodm:CDISCDefinition>Functional Assessment of Chronic Illness Therapy-Fatigue Scale Version 4 - I have trouble starting things because I am tired.</nciodm:CDISCDefinition>
                    <nciodm:PreferredTerm>FACIT-Fatigue Version 4 - Trouble Starting Things</nciodm:PreferredTerm>
                </EnumeratedItem>
                <nciodm:CDISCSubmissionValue>FAC070TN</nciodm:CDISCSubmissionValue>
                <nciodm:CDISCSynonym>Functional Assessment of Chronic Illness Therapy-Fatigue Scale Version 4 Questionnaire Test Name</nciodm:CDISCSynonym>
                <nciodm:PreferredTerm>CDISC Questionnaire FACIT-Fatigue Version 4 Test Name Terminology</nciodm:PreferredTerm>
            </CodeList>
            
