<CodeList xmlns="http://www.cdisc.org/ns/odm/v1.3" xmlns:nciodm="http://ncicb.nci.nih.gov/xml/odm/EVS/CDISC" xmlns:xs="http://www.w3.org/2001/XMLSchema-instance" OID="CL.C106650.ADL03TN" Name="Alzheimer's Disease Cooperative Study-Activities of Daily Living Inventory MCI Version Questionnaire Test Name" DataType="text" nciodm:ExtCodeID="C106650" nciodm:CodeListExtensible="No">
                <Description>
                    <TranslatedText xml:lang="en">Alzheimer's Disease Cooperative Study-Activities of Daily Living Inventory MCI Version test name.</TranslatedText>
                </Description>
                <EnumeratedItem CodedValue="ADL03-Appliance: Dishwasher" nciodm:ExtCodeID="C106933">
                    <nciodm:CDISCSynonym>ADL03-Appliance: Dishwasher</nciodm:CDISCSynonym>
                    <nciodm:CDISCDefinition>Alzheimer's Disease Cooperative Study-Activities of Daily Living Inventory, MCI Version - Check all that were used: dishwasher.</nciodm:CDISCDefinition>
                    <nciodm:PreferredTerm>ADCS-ADL MCI - Use Household Appliance: Dishwasher</nciodm:PreferredTerm>
                </EnumeratedItem>
                <EnumeratedItem CodedValue="ADL03-Appliance: Dryer" nciodm:ExtCodeID="C107090">
                    <nciodm:CDISCSynonym>ADL03-Appliance: Dryer</nciodm:CDISCSynonym>
                    <nciodm:CDISCDefinition>Alzheimer's Disease Cooperative Study-Activities of Daily Living Inventory, MCI Version - Check all that were used: dryer.</nciodm:CDISCDefinition>
                    <nciodm:PreferredTerm>ADCS-ADL MCI - Use Household Appliance: Dryer</nciodm:PreferredTerm>
                </EnumeratedItem>
                <EnumeratedItem CodedValue="ADL03-Appliance: Food Processor" nciodm:ExtCodeID="C106938">
                    <nciodm:CDISCSynonym>ADL03-Appliance: Food Processor</nciodm:CDISCSynonym>
                    <nciodm:CDISCDefinition>Alzheimer's Disease Cooperative Study-Activities of Daily Living Inventory, MCI Version - Check all that were used: food processor.</nciodm:CDISCDefinition>
                    <nciodm:PreferredTerm>ADCS-ADL MCI - Use Household Appliance: Food Processor</nciodm:PreferredTerm>
                </EnumeratedItem>
                <EnumeratedItem CodedValue="ADL03-Appliance: Microwave" nciodm:ExtCodeID="C106937">
                    <nciodm:CDISCSynonym>ADL03-Appliance: Microwave</nciodm:CDISCSynonym>
                    <nciodm:CDISCDefinition>Alzheimer's Disease Cooperative Study-Activities of Daily Living Inventory, MCI Version - Check all that were used: microwave.</nciodm:CDISCDefinition>
                    <nciodm:PreferredTerm>ADCS-ADL MCI - Use Household Appliance: Microwave</nciodm:PreferredTerm>
                </EnumeratedItem>
                <EnumeratedItem CodedValue="ADL03-Appliance: Other" nciodm:ExtCodeID="C106939">
                    <nciodm:CDISCSynonym>ADL03-Appliance: Other</nciodm:CDISCSynonym>
                    <nciodm:CDISCDefinition>Alzheimer's Disease Cooperative Study-Activities of Daily Living Inventory, MCI Version - Check all that were used: other.</nciodm:CDISCDefinition>
                    <nciodm:PreferredTerm>ADCS-ADL MCI - Use Household Appliance: Other</nciodm:PreferredTerm>
                </EnumeratedItem>
                <EnumeratedItem CodedValue="ADL03-Appliance: Other Specify" nciodm:ExtCodeID="C106940">
                    <nciodm:CDISCSynonym>ADL03-Appliance: Other Specify</nciodm:CDISCSynonym>
                    <nciodm:CDISCDefinition>Alzheimer's Disease Cooperative Study-Activities of Daily Living Inventory, MCI Version - Check all that were used: other specify.</nciodm:CDISCDefinition>
                    <nciodm:PreferredTerm>ADCS-ADL MCI - Use Household Appliance: Other Specify</nciodm:PreferredTerm>
                </EnumeratedItem>
                <EnumeratedItem CodedValue="ADL03-Appliance: Power Tools" nciodm:ExtCodeID="C106934">
                    <nciodm:CDISCSynonym>ADL03-Appliance: Power Tools</nciodm:CDISCSynonym>
                    <nciodm:CDISCDefinition>Alzheimer's Disease Cooperative Study-Activities of Daily Living Inventory, MCI Version - Check all that were used: power tool (s).</nciodm:CDISCDefinition>
                    <nciodm:PreferredTerm>ADCS-ADL MCI - Use Household Appliance: Power Tools</nciodm:PreferredTerm>
                </EnumeratedItem>
                <EnumeratedItem CodedValue="ADL03-Appliance: Range" nciodm:ExtCodeID="C106936">
                    <nciodm:CDISCSynonym>ADL03-Appliance: Range</nciodm:CDISCSynonym>
                    <nciodm:CDISCDefinition>Alzheimer's Disease Cooperative Study-Activities of Daily Living Inventory, MCI Version - Check all that were used: range.</nciodm:CDISCDefinition>
                    <nciodm:PreferredTerm>ADCS-ADL MCI - Use Household Appliance: Range</nciodm:PreferredTerm>
                </EnumeratedItem>
                <EnumeratedItem CodedValue="ADL03-Appliance: Toaster Oven" nciodm:ExtCodeID="C106935">
                    <nciodm:CDISCSynonym>ADL03-Appliance: Toaster Oven</nciodm:CDISCSynonym>
                    <nciodm:CDISCDefinition>Alzheimer's Disease Cooperative Study-Activities of Daily Living Inventory, MCI Version - Check all that were used: toaster oven.</nciodm:CDISCDefinition>
                    <nciodm:PreferredTerm>ADCS-ADL MCI - Use Household Appliance: Toaster Oven</nciodm:PreferredTerm>
                </EnumeratedItem>
                <EnumeratedItem CodedValue="ADL03-Appliance: Vacuum" nciodm:ExtCodeID="C107091">
                    <nciodm:CDISCSynonym>ADL03-Appliance: Vacuum</nciodm:CDISCSynonym>
                    <nciodm:CDISCDefinition>Alzheimer's Disease Cooperative Study-Activities of Daily Living Inventory, MCI Version - Check all that were used: vacuum.</nciodm:CDISCDefinition>
                    <nciodm:PreferredTerm>ADCS-ADL MCI - Use Household Appliance: Vacuum</nciodm:PreferredTerm>
                </EnumeratedItem>
                <EnumeratedItem CodedValue="ADL03-Appliance: Washer" nciodm:ExtCodeID="C107089">
                    <nciodm:CDISCSynonym>ADL03-Appliance: Washer</nciodm:CDISCSynonym>
                    <nciodm:CDISCDefinition>Alzheimer's Disease Cooperative Study-Activities of Daily Living Inventory, MCI Version - Check all that were used: washer.</nciodm:CDISCDefinition>
                    <nciodm:PreferredTerm>ADCS-ADL MCI - Use Household Appliance: Washer</nciodm:PreferredTerm>
                </EnumeratedItem>
                <EnumeratedItem CodedValue="ADL03-Aware of Appointment Ahead of Time" nciodm:ExtCodeID="C106905">
                    <nciodm:CDISCSynonym>ADL03-Aware of Appointment Ahead of Time</nciodm:CDISCSynonym>
                    <nciodm:CDISCDefinition>Alzheimer's Disease Cooperative Study-Activities of Daily Living Inventory, MCI Version - If yes, which best describes his/her awareness of the meeting ahead of time.</nciodm:CDISCDefinition>
                    <nciodm:PreferredTerm>ADCS-ADL MCI - Description of Awareness of the Meeting Ahead of Time</nciodm:PreferredTerm>
                </EnumeratedItem>
                <EnumeratedItem CodedValue="ADL03-Balance Checkbook" nciodm:ExtCodeID="C106898">
                    <nciodm:CDISCSynonym>ADL03-Balance Checkbook</nciodm:CDISCSynonym>
                    <nciodm:CDISCDefinition>Alzheimer's Disease Cooperative Study-Activities of Daily Living Inventory, MCI Version - In the past 4 weeks, did {S} balance his/her checkbook or credit card statement?</nciodm:CDISCDefinition>
                    <nciodm:PreferredTerm>ADCS-ADL MCI - Balance Checkbook</nciodm:PreferredTerm>
                </EnumeratedItem>
                <EnumeratedItem CodedValue="ADL03-Balance Checkbook Performance" nciodm:ExtCodeID="C106899">
                    <nciodm:CDISCSynonym>ADL03-Balance Checkbook Performance</nciodm:CDISCSynonym>
                    <nciodm:CDISCDefinition>Alzheimer's Disease Cooperative Study-Activities of Daily Living Inventory, MCI Version - If yes, which best describes how he/she usually performed.</nciodm:CDISCDefinition>
                    <nciodm:PreferredTerm>ADCS-ADL MCI - Description of Usual Performance of Balancing Checkbook</nciodm:PreferredTerm>
                </EnumeratedItem>
                <EnumeratedItem CodedValue="ADL03-Clean Laundry" nciodm:ExtCodeID="C106902">
                    <nciodm:CDISCSynonym>ADL03-Clean Laundry</nciodm:CDISCSynonym>
                    <nciodm:CDISCDefinition>Alzheimer's Disease Cooperative Study-Activities of Daily Living Inventory, MCI Version - In the past 4 weeks, did {S} clean a load of laundry?</nciodm:CDISCDefinition>
                    <nciodm:PreferredTerm>ADCS-ADL MCI - Clean Laundry</nciodm:PreferredTerm>
                </EnumeratedItem>
                <EnumeratedItem CodedValue="ADL03-Clean Room" nciodm:ExtCodeID="C106896">
                    <nciodm:CDISCSynonym>ADL03-Clean Room</nciodm:CDISCSynonym>
                    <nciodm:CDISCDefinition>Alzheimer's Disease Cooperative Study-Activities of Daily Living Inventory, MCI Version - In the past 4 weeks, did {S} clean a living-, sitting-, or family room?</nciodm:CDISCDefinition>
                    <nciodm:PreferredTerm>ADCS-ADL MCI - Clean Room</nciodm:PreferredTerm>
                </EnumeratedItem>
                <EnumeratedItem CodedValue="ADL03-Clean Room Performance" nciodm:ExtCodeID="C106897">
                    <nciodm:CDISCSynonym>ADL03-Clean Room Performance</nciodm:CDISCSynonym>
                    <nciodm:CDISCDefinition>Alzheimer's Disease Cooperative Study-Activities of Daily Living Inventory, MCI Version - If yes, which best describes how he/she usually performed.</nciodm:CDISCDefinition>
                    <nciodm:PreferredTerm>ADCS-ADL MCI - Description of Usual Performance of Cleaning Room</nciodm:PreferredTerm>
                </EnumeratedItem>
                <EnumeratedItem CodedValue="ADL03-Complete Complex Activities" nciodm:ExtCodeID="C106964">
                    <nciodm:CDISCSynonym>ADL03-Complete Complex Activities</nciodm:CDISCSynonym>
                    <nciodm:CDISCDefinition>Alzheimer's Disease Cooperative Study-Activities of Daily Living Inventory, MCI Version - During the past 4 weeks, did {S} usually carry through complex or time-consuming activities to completion?</nciodm:CDISCDefinition>
                    <nciodm:PreferredTerm>ADCS-ADL MCI - Carry Through Complex Activities to Completion</nciodm:PreferredTerm>
                </EnumeratedItem>
                <EnumeratedItem CodedValue="ADL03-Drive Car" nciodm:ExtCodeID="C106960">
                    <nciodm:CDISCSynonym>ADL03-Drive Car</nciodm:CDISCSynonym>
                    <nciodm:CDISCDefinition>Alzheimer's Disease Cooperative Study-Activities of Daily Living Inventory, MCI Version - In the past 4 weeks, did {S} drive a car?</nciodm:CDISCDefinition>
                    <nciodm:PreferredTerm>ADCS-ADL MCI - Drive a Car</nciodm:PreferredTerm>
                </EnumeratedItem>
                <EnumeratedItem CodedValue="ADL03-Drive Car Optimal Performance" nciodm:ExtCodeID="C106961">
                    <nciodm:CDISCSynonym>ADL03-Drive Car Optimal Performance</nciodm:CDISCSynonym>
                    <nciodm:CDISCDefinition>Alzheimer's Disease Cooperative Study-Activities of Daily Living Inventory, MCI Version - If yes, which best describes his/her optimal performance.</nciodm:CDISCDefinition>
                    <nciodm:PreferredTerm>ADCS-ADL MCI - Description of Optimal Performance of Driving Car</nciodm:PreferredTerm>
                </EnumeratedItem>
                <EnumeratedItem CodedValue="ADL03-Explain Circumstance" nciodm:ExtCodeID="C106969">
                    <nciodm:CDISCSynonym>ADL03-Explain Circumstance</nciodm:CDISCSynonym>
                    <nciodm:CDISCDefinition>Alzheimer's Disease Cooperative Study-Activities of Daily Living Inventory, MCI Version - If yes, explain.</nciodm:CDISCDefinition>
                    <nciodm:PreferredTerm>ADCS-ADL MCI - Explain Extenuating Circumstance</nciodm:PreferredTerm>
                </EnumeratedItem>
                <EnumeratedItem CodedValue="ADL03-Extent Needed Reminders" nciodm:ExtCodeID="C106965">
                    <nciodm:CDISCSynonym>ADL03-Extent Needed Reminders</nciodm:CDISCSynonym>
                    <nciodm:CDISCDefinition>Alzheimer's Disease Cooperative Study-Activities of Daily Living Inventory, MCI Version - If yes, which best describes extent to which he/she needed reminders.</nciodm:CDISCDefinition>
                    <nciodm:PreferredTerm>ADCS-ADL MCI - Description of Extent Needing Reminder</nciodm:PreferredTerm>
                </EnumeratedItem>
                <EnumeratedItem CodedValue="ADL03-Extenuating Circumstances" nciodm:ExtCodeID="C106968">
                    <nciodm:CDISCSynonym>ADL03-Extenuating Circumstances</nciodm:CDISCSynonym>
                    <nciodm:CDISCDefinition>Alzheimer's Disease Cooperative Study-Activities of Daily Living Inventory, MCI Version - Has an extenuating circumstance (such as a physical health problem, change in residence, change in support network, death of a family member, etc.) contributed to a recent alteration in the subject's activities of daily living?</nciodm:CDISCDefinition>
                    <nciodm:PreferredTerm>ADCS-ADL MCI - Extenuating Circumstance</nciodm:PreferredTerm>
                </EnumeratedItem>
                <EnumeratedItem CodedValue="ADL03-Find Belongings Usual Performance" nciodm:ExtCodeID="C106892">
                    <nciodm:CDISCSynonym>ADL03-Find Belongings Usual Performance</nciodm:CDISCSynonym>
                    <nciodm:CDISCDefinition>Alzheimer's Disease Cooperative Study-Activities of Daily Living Inventory, MCI Version - If yes, which best describes how he /she usually performed.</nciodm:CDISCDefinition>
                    <nciodm:PreferredTerm>ADCS-ADL MCI - Description of Usual Performance of Finding Belongings</nciodm:PreferredTerm>
                </EnumeratedItem>
                <EnumeratedItem CodedValue="ADL03-Find Personal Belongings" nciodm:ExtCodeID="C106891">
                    <nciodm:CDISCSynonym>ADL03-Find Personal Belongings</nciodm:CDISCSynonym>
                    <nciodm:CDISCDefinition>Alzheimer's Disease Cooperative Study-Activities of Daily Living Inventory, MCI Version - In the past 4 weeks, did {S} usually manage to find his/her personal belongings at home?</nciodm:CDISCDefinition>
                    <nciodm:PreferredTerm>ADCS-ADL MCI - Find Personal Belongings</nciodm:PreferredTerm>
                </EnumeratedItem>
                <EnumeratedItem CodedValue="ADL03-Get Around Optimal Performance" nciodm:ExtCodeID="C106911">
                    <nciodm:CDISCSynonym>ADL03-Get Around Optimal Performance</nciodm:CDISCSynonym>
                    <nciodm:CDISCDefinition>Alzheimer's Disease Cooperative Study-Activities of Daily Living Inventory, MCI Version - If yes, which best describes his/her optimal performance.</nciodm:CDISCDefinition>
                    <nciodm:PreferredTerm>ADCS-ADL MCI - Description of Optimal Performance of Travelling Outside Home</nciodm:PreferredTerm>
                </EnumeratedItem>
                <EnumeratedItem CodedValue="ADL03-Get Around Outside Home" nciodm:ExtCodeID="C106910">
                    <nciodm:CDISCSynonym>ADL03-Get Around Outside Home</nciodm:CDISCSynonym>
                    <nciodm:CDISCDefinition>Alzheimer's Disease Cooperative Study-Activities of Daily Living Inventory, MCI Version - In the past 4 weeks, did {S} get around (or travel) outside of his/her home?</nciodm:CDISCDefinition>
                    <nciodm:PreferredTerm>ADCS-ADL MCI - Travel Outside Home</nciodm:PreferredTerm>
                </EnumeratedItem>
                <EnumeratedItem CodedValue="ADL03-Go Shopping" nciodm:ExtCodeID="C106925">
                    <nciodm:CDISCSynonym>ADL03-Go Shopping</nciodm:CDISCSynonym>
                    <nciodm:CDISCDefinition>Alzheimer's Disease Cooperative Study-Activities of Daily Living Inventory, MCI Version - In the past 4 weeks, did {S} ever go shopping at a store?</nciodm:CDISCDefinition>
                    <nciodm:PreferredTerm>ADCS-ADL MCI - Go Shopping At a Store</nciodm:PreferredTerm>
                </EnumeratedItem>
                <EnumeratedItem CodedValue="ADL03-Highest Level of Food Preparation" nciodm:ExtCodeID="C106909">
                    <nciodm:CDISCSynonym>ADL03-Highest Level of Food Preparation</nciodm:CDISCSynonym>
                    <nciodm:CDISCDefinition>Alzheimer's Disease Cooperative Study-Activities of Daily Living Inventory, MCI Version - If yes, which best describes his/her highest level of food preparation.</nciodm:CDISCDefinition>
                    <nciodm:PreferredTerm>ADCS-ADL MCI - Description of Highest Level of Food Preparation</nciodm:PreferredTerm>
                </EnumeratedItem>
                <EnumeratedItem CodedValue="ADL03-Highest Telephone Use Performance" nciodm:ExtCodeID="C106907">
                    <nciodm:CDISCSynonym>ADL03-Highest Telephone Use Performance</nciodm:CDISCSynonym>
                    <nciodm:CDISCDefinition>Alzheimer's Disease Cooperative Study-Activities of Daily Living Inventory, MCI Version - If yes, which best describes his/her highest level of performance.</nciodm:CDISCDefinition>
                    <nciodm:PreferredTerm>ADCS-ADL MCI - Description of Highest Level of Performance of Telephone Use</nciodm:PreferredTerm>
                </EnumeratedItem>
                <EnumeratedItem CodedValue="ADL03-Hobbies Needed Help (Q18a)" nciodm:ExtCodeID="C106958">
                    <nciodm:CDISCSynonym>ADL03-Hobbies Needed Help (Q18a)</nciodm:CDISCSynonym>
                    <nciodm:CDISCDefinition>Alzheimer's Disease Cooperative Study-Activities of Daily Living Inventory, MCI Version - Did {S} require supervision, or help, to perform any of these hobbies?</nciodm:CDISCDefinition>
                    <nciodm:PreferredTerm>ADCS-ADL MCI - Require Help to Perform Hobbies</nciodm:PreferredTerm>
                </EnumeratedItem>
                <EnumeratedItem CodedValue="ADL03-Hobbies Unable to Perform (Q18b)" nciodm:ExtCodeID="C106959">
                    <nciodm:CDISCSynonym>ADL03-Hobbies Unable to Perform (Q18b)</nciodm:CDISCSynonym>
                    <nciodm:CDISCDefinition>Alzheimer's Disease Cooperative Study-Activities of Daily Living Inventory, MCI Version - List any hobby (ies) that the subject has lost the ability to perform.</nciodm:CDISCDefinition>
                    <nciodm:PreferredTerm>ADCS-ADL MCI - List Hobbies Lost Ability to Perform</nciodm:PreferredTerm>
                </EnumeratedItem>
                <EnumeratedItem CodedValue="ADL03-Initiate Complex Activities" nciodm:ExtCodeID="C106966">
                    <nciodm:CDISCSynonym>ADL03-Initiate Complex Activities</nciodm:CDISCSynonym>
                    <nciodm:CDISCDefinition>Alzheimer's Disease Cooperative Study-Activities of Daily Living Inventory, MCI Version - During the past 4 weeks, to what extent did {S} initiate complex daily activities or projects (e.g., hobbies, travel)?</nciodm:CDISCDefinition>
                    <nciodm:PreferredTerm>ADCS-ADL MCI - Initiate Complex Daily Activities</nciodm:PreferredTerm>
                </EnumeratedItem>
                <EnumeratedItem CodedValue="ADL03-Keep Appointments" nciodm:ExtCodeID="C106904">
                    <nciodm:CDISCSynonym>ADL03-Keep Appointments</nciodm:CDISCSynonym>
                    <nciodm:CDISCDefinition>Alzheimer's Disease Cooperative Study-Activities of Daily Living Inventory, MCI Version - In the past 4 weeks, did {S} keep appointments or meetings with other people, such as relatives, a doctor, the hairdresser, etc.?</nciodm:CDISCDefinition>
                    <nciodm:PreferredTerm>ADCS-ADL MCI - Keep Appointments</nciodm:PreferredTerm>
                </EnumeratedItem>
                <EnumeratedItem CodedValue="ADL03-Laundry Cleaning Performance" nciodm:ExtCodeID="C106903">
                    <nciodm:CDISCSynonym>ADL03-Laundry Cleaning Performance</nciodm:CDISCSynonym>
                    <nciodm:CDISCDefinition>Alzheimer's Disease Cooperative Study-Activities of Daily Living Inventory, MCI Version - If yes, which best describes how he/she usually performed.</nciodm:CDISCDefinition>
                    <nciodm:PreferredTerm>ADCS-ADL MCI - Description of Usual Performance of Clean Laundry</nciodm:PreferredTerm>
                </EnumeratedItem>
                <EnumeratedItem CodedValue="ADL03-Left at Home for 1 Hour or Longer" nciodm:ExtCodeID="C106930">
                    <nciodm:CDISCSynonym>ADL03-Left at Home for 1 Hour or Longer</nciodm:CDISCSynonym>
                    <nciodm:CDISCDefinition>Alzheimer's Disease Cooperative Study-Activities of Daily Living Inventory, MCI Version - Was {S} left at home, for an hour or longer, during the day?</nciodm:CDISCDefinition>
                    <nciodm:PreferredTerm>ADCS-ADL MCI - Left at Home Longer Than an Hour</nciodm:PreferredTerm>
                </EnumeratedItem>
                <EnumeratedItem CodedValue="ADL03-Left at Home for Less Than 1 Hour" nciodm:ExtCodeID="C106931">
                    <nciodm:CDISCSynonym>ADL03-Left at Home for Less Than 1 Hour</nciodm:CDISCSynonym>
                    <nciodm:CDISCDefinition>Alzheimer's Disease Cooperative Study-Activities of Daily Living Inventory, MCI Version - Was {S} left at home, for less than 1 hour, during the day?</nciodm:CDISCDefinition>
                    <nciodm:PreferredTerm>ADCS-ADL MCI - Left at Home Less Than an Hour</nciodm:PreferredTerm>
                </EnumeratedItem>
                <EnumeratedItem CodedValue="ADL03-Left Away From Home" nciodm:ExtCodeID="C106929">
                    <nciodm:CDISCSynonym>ADL03-Left Away From Home</nciodm:CDISCSynonym>
                    <nciodm:CDISCDefinition>Alzheimer's Disease Cooperative Study-Activities of Daily Living Inventory, MCI Version - Was {S} left away from home, for 15 minutes or longer, during the day?</nciodm:CDISCDefinition>
                    <nciodm:PreferredTerm>ADCS-ADL MCI - Left Away From Home Longer Than 15 Minutes</nciodm:PreferredTerm>
                </EnumeratedItem>
                <EnumeratedItem CodedValue="ADL03-Left On His/Her Own" nciodm:ExtCodeID="C106928">
                    <nciodm:CDISCSynonym>ADL03-Left On His/Her Own</nciodm:CDISCSynonym>
                    <nciodm:CDISCDefinition>Alzheimer's Disease Cooperative Study-Activities of Daily Living Inventory, MCI Version - In the past 4 weeks, was {S} ever left on his/her own?</nciodm:CDISCDefinition>
                    <nciodm:PreferredTerm>ADCS-ADL MCI - Left on His or Her Own</nciodm:PreferredTerm>
                </EnumeratedItem>
                <EnumeratedItem CodedValue="ADL03-Make a Meal" nciodm:ExtCodeID="C106908">
                    <nciodm:CDISCSynonym>ADL03-Make a Meal</nciodm:CDISCSynonym>
                    <nciodm:CDISCDefinition>Alzheimer's Disease Cooperative Study-Activities of Daily Living Inventory, MCI Version - In the past 4 weeks, did {S} make him/herself a meal or snack at home?</nciodm:CDISCDefinition>
                    <nciodm:PreferredTerm>ADCS-ADL MCI - Make a Meal or Snack</nciodm:PreferredTerm>
                </EnumeratedItem>
                <EnumeratedItem CodedValue="ADL03-Most Complicated Writings" nciodm:ExtCodeID="C106901">
                    <nciodm:CDISCSynonym>ADL03-Most Complicated Writings</nciodm:CDISCSynonym>
                    <nciodm:CDISCDefinition>Alzheimer's Disease Cooperative Study-Activities of Daily Living Inventory, MCI Version - If yes, which best describes the most complicated things that he/she wrote.</nciodm:CDISCDefinition>
                    <nciodm:PreferredTerm>ADCS-ADL MCI - Description of Usual Performance of Most Complicated Things Written</nciodm:PreferredTerm>
                </EnumeratedItem>
                <EnumeratedItem CodedValue="ADL03-Pastime: Art" nciodm:ExtCodeID="C106946">
                    <nciodm:CDISCSynonym>ADL03-Pastime: Art</nciodm:CDISCSynonym>
                    <nciodm:CDISCDefinition>Alzheimer's Disease Cooperative Study-Activities of Daily Living Inventory, MCI Version - Which pastimes did he/she perform: art.</nciodm:CDISCDefinition>
                    <nciodm:PreferredTerm>ADCS-ADL MCI - Perform Pastime, Hobby or Game: Art</nciodm:PreferredTerm>
                </EnumeratedItem>
                <EnumeratedItem CodedValue="ADL03-Pastime: Bingo" nciodm:ExtCodeID="C106944">
                    <nciodm:CDISCSynonym>ADL03-Pastime: Bingo</nciodm:CDISCSynonym>
                    <nciodm:CDISCDefinition>Alzheimer's Disease Cooperative Study-Activities of Daily Living Inventory, MCI Version - Which pastimes did he/she perform: bingo.</nciodm:CDISCDefinition>
                    <nciodm:PreferredTerm>ADCS-ADL MCI - Perform Pastime, Hobby or Game: Bingo</nciodm:PreferredTerm>
                </EnumeratedItem>
                <EnumeratedItem CodedValue="ADL03-Pastime: Card or Board Games" nciodm:ExtCodeID="C106943">
                    <nciodm:CDISCSynonym>ADL03-Pastime: Card or Board Games</nciodm:CDISCSynonym>
                    <nciodm:CDISCDefinition>Alzheimer's Disease Cooperative Study-Activities of Daily Living Inventory, MCI Version - Which pastimes did he/she perform: card or board games.</nciodm:CDISCDefinition>
                    <nciodm:PreferredTerm>ADCS-ADL MCI - Perform Pastime, Hobby or Game: Card or Board Games</nciodm:PreferredTerm>
                </EnumeratedItem>
                <EnumeratedItem CodedValue="ADL03-Pastime: Crosswords" nciodm:ExtCodeID="C106945">
                    <nciodm:CDISCSynonym>ADL03-Pastime: Crosswords</nciodm:CDISCSynonym>
                    <nciodm:CDISCDefinition>Alzheimer's Disease Cooperative Study-Activities of Daily Living Inventory, MCI Version - Which pastimes did he/she perform: crosswords.</nciodm:CDISCDefinition>
                    <nciodm:PreferredTerm>ADCS-ADL MCI - Perform Pastime, Hobby or Game: Crosswords</nciodm:PreferredTerm>
                </EnumeratedItem>
                <EnumeratedItem CodedValue="ADL03-Pastime: Fishing" nciodm:ExtCodeID="C106955">
                    <nciodm:CDISCSynonym>ADL03-Pastime: Fishing</nciodm:CDISCSynonym>
                    <nciodm:CDISCDefinition>Alzheimer's Disease Cooperative Study-Activities of Daily Living Inventory, MCI Version - Which pastimes did he/she perform: fishing.</nciodm:CDISCDefinition>
                    <nciodm:PreferredTerm>ADCS-ADL MCI - Perform Pastime, Hobby or Game: Fishing</nciodm:PreferredTerm>
                </EnumeratedItem>
                <EnumeratedItem CodedValue="ADL03-Pastime: Gardening" nciodm:ExtCodeID="C106951">
                    <nciodm:CDISCSynonym>ADL03-Pastime: Gardening</nciodm:CDISCSynonym>
                    <nciodm:CDISCDefinition>Alzheimer's Disease Cooperative Study-Activities of Daily Living Inventory, MCI Version - Which pastimes did he/she perform: gardening.</nciodm:CDISCDefinition>
                    <nciodm:PreferredTerm>ADCS-ADL MCI - Perform Pastime, Hobby or Game: Gardening</nciodm:PreferredTerm>
                </EnumeratedItem>
                <EnumeratedItem CodedValue="ADL03-Pastime: Golf" nciodm:ExtCodeID="C106952">
                    <nciodm:CDISCSynonym>ADL03-Pastime: Golf</nciodm:CDISCSynonym>
                    <nciodm:CDISCDefinition>Alzheimer's Disease Cooperative Study-Activities of Daily Living Inventory, MCI Version - Which pastimes did he/she perform: golf.</nciodm:CDISCDefinition>
                    <nciodm:PreferredTerm>ADCS-ADL MCI - Perform Pastime, Hobby or Game: Golf</nciodm:PreferredTerm>
                </EnumeratedItem>
                <EnumeratedItem CodedValue="ADL03-Pastime: Knitting" nciodm:ExtCodeID="C106948">
                    <nciodm:CDISCSynonym>ADL03-Pastime: Knitting</nciodm:CDISCSynonym>
                    <nciodm:CDISCDefinition>Alzheimer's Disease Cooperative Study-Activities of Daily Living Inventory, MCI Version - Which pastimes did he/she perform: knitting.</nciodm:CDISCDefinition>
                    <nciodm:PreferredTerm>ADCS-ADL MCI - Perform Pastime, Hobby or Game: Knitting</nciodm:PreferredTerm>
                </EnumeratedItem>
                <EnumeratedItem CodedValue="ADL03-Pastime: Musical Instrument" nciodm:ExtCodeID="C106947">
                    <nciodm:CDISCSynonym>ADL03-Pastime: Musical Instrument</nciodm:CDISCSynonym>
                    <nciodm:CDISCDefinition>Alzheimer's Disease Cooperative Study-Activities of Daily Living Inventory, MCI Version - Which pastimes did he/she perform: musical instrument.</nciodm:CDISCDefinition>
                    <nciodm:PreferredTerm>ADCS-ADL MCI - Perform Pastime, Hobby or Game: Musical Instrument</nciodm:PreferredTerm>
                </EnumeratedItem>
                <EnumeratedItem CodedValue="ADL03-Pastime: Other" nciodm:ExtCodeID="C106956">
                    <nciodm:CDISCSynonym>ADL03-Pastime: Other</nciodm:CDISCSynonym>
                    <nciodm:CDISCDefinition>Alzheimer's Disease Cooperative Study-Activities of Daily Living Inventory, MCI Version - Which pastimes did he/she perform: other.</nciodm:CDISCDefinition>
                    <nciodm:PreferredTerm>ADCS-ADL MCI - Perform Pastime, Hobby or Game: Other</nciodm:PreferredTerm>
                </EnumeratedItem>
                <EnumeratedItem CodedValue="ADL03-Pastime: Other Specify" nciodm:ExtCodeID="C106957">
                    <nciodm:CDISCSynonym>ADL03-Pastime: Other Specify</nciodm:CDISCSynonym>
                    <nciodm:CDISCDefinition>Alzheimer's Disease Cooperative Study-Activities of Daily Living Inventory, MCI Version - Which pastimes did he/she perform: other specify.</nciodm:CDISCDefinition>
                    <nciodm:PreferredTerm>ADCS-ADL MCI - Perform Pastime, Hobby or Game: Other Specify</nciodm:PreferredTerm>
                </EnumeratedItem>
                <EnumeratedItem CodedValue="ADL03-Pastime: Reading" nciodm:ExtCodeID="C106950">
                    <nciodm:CDISCSynonym>ADL03-Pastime: Reading</nciodm:CDISCSynonym>
                    <nciodm:CDISCDefinition>Alzheimer's Disease Cooperative Study-Activities of Daily Living Inventory, MCI Version - Which pastimes did he/she perform: reading.</nciodm:CDISCDefinition>
                    <nciodm:PreferredTerm>ADCS-ADL MCI - Perform Pastime, Hobby or Game: Reading</nciodm:PreferredTerm>
                </EnumeratedItem>
                <EnumeratedItem CodedValue="ADL03-Pastime: Sewing" nciodm:ExtCodeID="C106949">
                    <nciodm:CDISCSynonym>ADL03-Pastime: Sewing</nciodm:CDISCSynonym>
                    <nciodm:CDISCDefinition>Alzheimer's Disease Cooperative Study-Activities of Daily Living Inventory, MCI Version - Which pastimes did he/she perform: sewing.</nciodm:CDISCDefinition>
                    <nciodm:PreferredTerm>ADCS-ADL MCI - Perform Pastime, Hobby or Game: Sewing</nciodm:PreferredTerm>
                </EnumeratedItem>
                <EnumeratedItem CodedValue="ADL03-Pastime: Tennis" nciodm:ExtCodeID="C106953">
                    <nciodm:CDISCSynonym>ADL03-Pastime: Tennis</nciodm:CDISCSynonym>
                    <nciodm:CDISCDefinition>Alzheimer's Disease Cooperative Study-Activities of Daily Living Inventory, MCI Version - Which pastimes did he/she perform: tennis.</nciodm:CDISCDefinition>
                    <nciodm:PreferredTerm>ADCS-ADL MCI - Perform Pastime, Hobby or Game: Tennis</nciodm:PreferredTerm>
                </EnumeratedItem>
                <EnumeratedItem CodedValue="ADL03-Pastime: Workshop" nciodm:ExtCodeID="C106954">
                    <nciodm:CDISCSynonym>ADL03-Pastime: Workshop</nciodm:CDISCSynonym>
                    <nciodm:CDISCDefinition>Alzheimer's Disease Cooperative Study-Activities of Daily Living Inventory, MCI Version - Which pastimes did he/she perform: workshop.</nciodm:CDISCDefinition>
                    <nciodm:PreferredTerm>ADCS-ADL MCI - Perform Pastime, Hobby or Game: Workshop</nciodm:PreferredTerm>
                </EnumeratedItem>
                <EnumeratedItem CodedValue="ADL03-Pay Items On His/Her Own" nciodm:ExtCodeID="C106927">
                    <nciodm:CDISCSynonym>ADL03-Pay Items On His/Her Own</nciodm:CDISCSynonym>
                    <nciodm:CDISCDefinition>Alzheimer's Disease Cooperative Study-Activities of Daily Living Inventory, MCI Version - Did {S} usually pay for items on his/her own?</nciodm:CDISCDefinition>
                    <nciodm:PreferredTerm>ADCS-ADL MCI - Pay for Items on His or Her Own</nciodm:PreferredTerm>
                </EnumeratedItem>
                <EnumeratedItem CodedValue="ADL03-Perform Pastime" nciodm:ExtCodeID="C106942">
                    <nciodm:CDISCSynonym>ADL03-Perform Pastime</nciodm:CDISCSynonym>
                    <nciodm:CDISCDefinition>Alzheimer's Disease Cooperative Study-Activities of Daily Living Inventory, MCI Version - In the past 4 weeks, did {S} perform a pastime, hobby or game?</nciodm:CDISCDefinition>
                    <nciodm:PreferredTerm>ADCS-ADL MCI - Perform Pastime, Hobby or Game</nciodm:PreferredTerm>
                </EnumeratedItem>
                <EnumeratedItem CodedValue="ADL03-Read More Than 5 Minutes" nciodm:ExtCodeID="C106917">
                    <nciodm:CDISCSynonym>ADL03-Read More Than 5 Minutes</nciodm:CDISCSynonym>
                    <nciodm:CDISCDefinition>Alzheimer's Disease Cooperative Study-Activities of Daily Living Inventory, MCI Version - In the past 4 weeks, did {S} read a magazine, newspaper or book for more than 5 minutes at a time?</nciodm:CDISCDefinition>
                    <nciodm:PreferredTerm>ADCS-ADL MCI - Read More Than 5 Minutes</nciodm:PreferredTerm>
                </EnumeratedItem>
                <EnumeratedItem CodedValue="ADL03-Regional, National, International" nciodm:ExtCodeID="C106913">
                    <nciodm:CDISCSynonym>ADL03-Regional, National, International</nciodm:CDISCSynonym>
                    <nciodm:CDISCDefinition>Alzheimer's Disease Cooperative Study-Activities of Daily Living Inventory, MCI Version - If yes, did {S} talk about regional, national or international events?</nciodm:CDISCDefinition>
                    <nciodm:PreferredTerm>ADCS-ADL MCI - Talk About Regional, National or International Events</nciodm:PreferredTerm>
                </EnumeratedItem>
                <EnumeratedItem CodedValue="ADL03-Select First Clothes for the Day" nciodm:ExtCodeID="C106893">
                    <nciodm:CDISCSynonym>ADL03-Select First Clothes for the Day</nciodm:CDISCSynonym>
                    <nciodm:CDISCDefinition>Alzheimer's Disease Cooperative Study-Activities of Daily Living Inventory, MCI Version - In the past 4 weeks, did {S} select his/her first set of clothes for the day?</nciodm:CDISCDefinition>
                    <nciodm:PreferredTerm>ADCS-ADL MCI - Select First Clothes for the Day</nciodm:PreferredTerm>
                </EnumeratedItem>
                <EnumeratedItem CodedValue="ADL03-Select Items Without Help" nciodm:ExtCodeID="C106926">
                    <nciodm:CDISCSynonym>ADL03-Select Items Without Help</nciodm:CDISCSynonym>
                    <nciodm:CDISCDefinition>Alzheimer's Disease Cooperative Study-Activities of Daily Living Inventory, MCI Version - Did {S} usually select correct items without supervision or help?</nciodm:CDISCDefinition>
                    <nciodm:PreferredTerm>ADCS-ADL MCI - Select Correct Items Without Help</nciodm:PreferredTerm>
                </EnumeratedItem>
                <EnumeratedItem CodedValue="ADL03-Select Television Program" nciodm:ExtCodeID="C106922">
                    <nciodm:CDISCSynonym>ADL03-Select Television Program</nciodm:CDISCSynonym>
                    <nciodm:CDISCDefinition>Alzheimer's Disease Cooperative Study-Activities of Daily Living Inventory, MCI Version - Did {S} usually select or ask for different programs or his/her favorite show?</nciodm:CDISCDefinition>
                    <nciodm:PreferredTerm>ADCS-ADL MCI - Select or Ask for Programs or Show</nciodm:PreferredTerm>
                </EnumeratedItem>
                <EnumeratedItem CodedValue="ADL03-Select/Ask for Something to Read" nciodm:ExtCodeID="C106918">
                    <nciodm:CDISCSynonym>ADL03-Select/Ask for Something to Read</nciodm:CDISCSynonym>
                    <nciodm:CDISCDefinition>Alzheimer's Disease Cooperative Study-Activities of Daily Living Inventory, MCI Version - Did {S} usually select or ask for something to read?</nciodm:CDISCDefinition>
                    <nciodm:PreferredTerm>ADCS-ADL MCI - Select or Ask for Something to Read</nciodm:PreferredTerm>
                </EnumeratedItem>
                <EnumeratedItem CodedValue="ADL03-Subscore for Item 17" nciodm:ExtCodeID="C106976">
                    <nciodm:CDISCSynonym>ADL03-Subscore for Item 17</nciodm:CDISCSynonym>
                    <nciodm:CDISCDefinition>Alzheimer's Disease Cooperative Study-Activities of Daily Living Inventory, MCI Version - Subscore for Page 7.</nciodm:CDISCDefinition>
                    <nciodm:PreferredTerm>ADCS-ADL MCI - Subscore for Item 17</nciodm:PreferredTerm>
                </EnumeratedItem>
                <EnumeratedItem CodedValue="ADL03-Subscore for Item 18" nciodm:ExtCodeID="C106977">
                    <nciodm:CDISCSynonym>ADL03-Subscore for Item 18</nciodm:CDISCSynonym>
                    <nciodm:CDISCDefinition>Alzheimer's Disease Cooperative Study-Activities of Daily Living Inventory, MCI Version - Subscore for Page 8.</nciodm:CDISCDefinition>
                    <nciodm:PreferredTerm>ADCS-ADL MCI - Subscore for Item 18</nciodm:PreferredTerm>
                </EnumeratedItem>
                <EnumeratedItem CodedValue="ADL03-Subscore for Items 1 to 3" nciodm:ExtCodeID="C106970">
                    <nciodm:CDISCSynonym>ADL03-Subscore for Items 1 to 3</nciodm:CDISCSynonym>
                    <nciodm:CDISCDefinition>Alzheimer's Disease Cooperative Study-Activities of Daily Living Inventory, MCI Version - Subscore for Page 1.</nciodm:CDISCDefinition>
                    <nciodm:PreferredTerm>ADCS-ADL MCI - Subscore for Items 1 to 3</nciodm:PreferredTerm>
                </EnumeratedItem>
                <EnumeratedItem CodedValue="ADL03-Subscore for Items 11 to 12d" nciodm:ExtCodeID="C106973">
                    <nciodm:CDISCSynonym>ADL03-Subscore for Items 11 to 12d</nciodm:CDISCSynonym>
                    <nciodm:CDISCDefinition>Alzheimer's Disease Cooperative Study-Activities of Daily Living Inventory, MCI Version - Subscore for Page 4.</nciodm:CDISCDefinition>
                    <nciodm:PreferredTerm>ADCS-ADL MCI - Subscore for Items 11 to 12</nciodm:PreferredTerm>
                </EnumeratedItem>
                <EnumeratedItem CodedValue="ADL03-Subscore for Items 13 to 14c" nciodm:ExtCodeID="C106974">
                    <nciodm:CDISCSynonym>ADL03-Subscore for Items 13 to 14c</nciodm:CDISCSynonym>
                    <nciodm:CDISCDefinition>Alzheimer's Disease Cooperative Study-Activities of Daily Living Inventory, MCI Version - Subscore for Page 5.</nciodm:CDISCDefinition>
                    <nciodm:PreferredTerm>ADCS-ADL MCI - Subscore for Items 13 to 14</nciodm:PreferredTerm>
                </EnumeratedItem>
                <EnumeratedItem CodedValue="ADL03-Subscore for Items 15 to 16c" nciodm:ExtCodeID="C106975">
                    <nciodm:CDISCSynonym>ADL03-Subscore for Items 15 to 16c</nciodm:CDISCSynonym>
                    <nciodm:CDISCDefinition>Alzheimer's Disease Cooperative Study-Activities of Daily Living Inventory, MCI Version - Subscore for Page 6.</nciodm:CDISCDefinition>
                    <nciodm:PreferredTerm>ADCS-ADL MCI - Subscore for Items 15 to 16</nciodm:PreferredTerm>
                </EnumeratedItem>
                <EnumeratedItem CodedValue="ADL03-Subscore for Items 4 to 7" nciodm:ExtCodeID="C106971">
                    <nciodm:CDISCSynonym>ADL03-Subscore for Items 4 to 7</nciodm:CDISCSynonym>
                    <nciodm:CDISCDefinition>Alzheimer's Disease Cooperative Study-Activities of Daily Living Inventory, MCI Version - Subscore for Page 2.</nciodm:CDISCDefinition>
                    <nciodm:PreferredTerm>ADCS-ADL MCI - Subscore for Items 4 to 7</nciodm:PreferredTerm>
                </EnumeratedItem>
                <EnumeratedItem CodedValue="ADL03-Subscore for Items 8 to 10" nciodm:ExtCodeID="C106972">
                    <nciodm:CDISCSynonym>ADL03-Subscore for Items 8 to 10</nciodm:CDISCSynonym>
                    <nciodm:CDISCDefinition>Alzheimer's Disease Cooperative Study-Activities of Daily Living Inventory, MCI Version - Subscore for Page 3.</nciodm:CDISCDefinition>
                    <nciodm:PreferredTerm>ADCS-ADL MCI - Subscore for Items 8 to 10</nciodm:PreferredTerm>
                </EnumeratedItem>
                <EnumeratedItem CodedValue="ADL03-Take Medications Performance" nciodm:ExtCodeID="C106963">
                    <nciodm:CDISCSynonym>ADL03-Take Medications Performance</nciodm:CDISCSynonym>
                    <nciodm:CDISCDefinition>Alzheimer's Disease Cooperative Study-Activities of Daily Living Inventory, MCI Version - If yes, was this.</nciodm:CDISCDefinition>
                    <nciodm:PreferredTerm>ADCS-ADL MCI - Description of Taking Medications Regularly</nciodm:PreferredTerm>
                </EnumeratedItem>
                <EnumeratedItem CodedValue="ADL03-Take Medications Regularly" nciodm:ExtCodeID="C106962">
                    <nciodm:CDISCSynonym>ADL03-Take Medications Regularly</nciodm:CDISCSynonym>
                    <nciodm:CDISCDefinition>Alzheimer's Disease Cooperative Study-Activities of Daily Living Inventory, MCI Version - During the past 4 weeks, did {S} take his/her medications regularly?</nciodm:CDISCDefinition>
                    <nciodm:PreferredTerm>ADCS-ADL MCI - Take Medications Regularly</nciodm:PreferredTerm>
                </EnumeratedItem>
                <EnumeratedItem CodedValue="ADL03-Talk About at Home Events" nciodm:ExtCodeID="C106915">
                    <nciodm:CDISCSynonym>ADL03-Talk About at Home Events</nciodm:CDISCSynonym>
                    <nciodm:CDISCDefinition>Alzheimer's Disease Cooperative Study-Activities of Daily Living Inventory, MCI Version - Did {S} talk about events that occurred at home that he/she took part in or watched?</nciodm:CDISCDefinition>
                    <nciodm:PreferredTerm>ADCS-ADL MCI - Talk About at Home Events</nciodm:PreferredTerm>
                </EnumeratedItem>
                <EnumeratedItem CodedValue="ADL03-Talk About Current Events" nciodm:ExtCodeID="C106912">
                    <nciodm:CDISCSynonym>ADL03-Talk About Current Events</nciodm:CDISCSynonym>
                    <nciodm:CDISCDefinition>Alzheimer's Disease Cooperative Study-Activities of Daily Living Inventory, MCI Version - In the past 4 weeks, did {S} talk about current events?</nciodm:CDISCDefinition>
                    <nciodm:PreferredTerm>ADCS-ADL MCI - Talk About Current Events</nciodm:PreferredTerm>
                </EnumeratedItem>
                <EnumeratedItem CodedValue="ADL03-Talk About Outside Events" nciodm:ExtCodeID="C106914">
                    <nciodm:CDISCSynonym>ADL03-Talk About Outside Events</nciodm:CDISCSynonym>
                    <nciodm:CDISCDefinition>Alzheimer's Disease Cooperative Study-Activities of Daily Living Inventory, MCI Version - Did {S} talk about events outside home involving family, friends, or neighbors?</nciodm:CDISCDefinition>
                    <nciodm:PreferredTerm>ADCS-ADL MCI - Talk About Outside Home Events</nciodm:PreferredTerm>
                </EnumeratedItem>
                <EnumeratedItem CodedValue="ADL03-Talk About TV Content While Watch" nciodm:ExtCodeID="C106923">
                    <nciodm:CDISCSynonym>ADL03-Talk About TV Content While Watch</nciodm:CDISCSynonym>
                    <nciodm:CDISCDefinition>Alzheimer's Disease Cooperative Study-Activities of Daily Living Inventory, MCI Version - Did {S} usually talk about the content of a program while watching it?</nciodm:CDISCDefinition>
                    <nciodm:PreferredTerm>ADCS-ADL MCI - Talk About Content of Program While Watching</nciodm:PreferredTerm>
                </EnumeratedItem>
                <EnumeratedItem CodedValue="ADL03-Talk About TV Content Within a Day" nciodm:ExtCodeID="C106924">
                    <nciodm:CDISCSynonym>ADL03-Talk About TV Content Within a Day</nciodm:CDISCSynonym>
                    <nciodm:CDISCDefinition>Alzheimer's Disease Cooperative Study-Activities of Daily Living Inventory, MCI Version - Did {S} talk about the content of a program within a day (24 hours) after watching it?</nciodm:CDISCDefinition>
                    <nciodm:PreferredTerm>ADCS-ADL MCI - Talk About Content of Program After Watching Within a Day</nciodm:PreferredTerm>
                </EnumeratedItem>
                <EnumeratedItem CodedValue="ADL03-Talk Within 1 Day After Reading" nciodm:ExtCodeID="C106920">
                    <nciodm:CDISCSynonym>ADL03-Talk Within 1 Day After Reading</nciodm:CDISCSynonym>
                    <nciodm:CDISCDefinition>Alzheimer's Disease Cooperative Study-Activities of Daily Living Inventory, MCI Version - Did {S} usually talk about what he/she read 1-24 hours after reading?</nciodm:CDISCDefinition>
                    <nciodm:PreferredTerm>ADCS-ADL MCI - Talk Within 24 Hours After Reading</nciodm:PreferredTerm>
                </EnumeratedItem>
                <EnumeratedItem CodedValue="ADL03-Talk Within 1 Hour After Reading" nciodm:ExtCodeID="C106919">
                    <nciodm:CDISCSynonym>ADL03-Talk Within 1 Hour After Reading</nciodm:CDISCSynonym>
                    <nciodm:CDISCDefinition>Alzheimer's Disease Cooperative Study-Activities of Daily Living Inventory, MCI Version - Did {S} usually talk about what he/she read while or shortly after reading (less than 1 hour)?</nciodm:CDISCDefinition>
                    <nciodm:PreferredTerm>ADCS-ADL MCI - Talk Within 1 Hour After Reading</nciodm:PreferredTerm>
                </EnumeratedItem>
                <EnumeratedItem CodedValue="ADL03-Talk Without Repeating" nciodm:ExtCodeID="C106916">
                    <nciodm:CDISCSynonym>ADL03-Talk Without Repeating</nciodm:CDISCSynonym>
                    <nciodm:CDISCDefinition>Alzheimer's Disease Cooperative Study-Activities of Daily Living Inventory, MCI Version - Did {S} converse without repeating him/herself, or asking the same questions repeatedly?</nciodm:CDISCDefinition>
                    <nciodm:PreferredTerm>ADCS-ADL MCI - Converse Without Repeating</nciodm:PreferredTerm>
                </EnumeratedItem>
                <EnumeratedItem CodedValue="ADL03-Time to Complete Complex Tasks" nciodm:ExtCodeID="C106967">
                    <nciodm:CDISCSynonym>ADL03-Time to Complete Complex Tasks</nciodm:CDISCSynonym>
                    <nciodm:CDISCDefinition>Alzheimer's Disease Cooperative Study-Activities of Daily Living Inventory, MCI Version - During the past 4 weeks, how long did it usually take {S} to complete complex or time-consuming tasks or activities?</nciodm:CDISCDefinition>
                    <nciodm:PreferredTerm>ADCS-ADL MCI - Time Taken to Complete Complex Activities</nciodm:PreferredTerm>
                </EnumeratedItem>
                <EnumeratedItem CodedValue="ADL03-Total ADCS-ADL Score" nciodm:ExtCodeID="C106978">
                    <nciodm:CDISCSynonym>ADL03-Total ADCS-ADL Score</nciodm:CDISCSynonym>
                    <nciodm:CDISCDefinition>Alzheimer's Disease Cooperative Study-Activities of Daily Living Inventory, MCI Version - Total Score.</nciodm:CDISCDefinition>
                    <nciodm:PreferredTerm>ADCS-ADL MCI - ADL Total Score</nciodm:PreferredTerm>
                </EnumeratedItem>
                <EnumeratedItem CodedValue="ADL03-Total Points for 'Don't Know'" nciodm:ExtCodeID="C107092">
                    <nciodm:CDISCSynonym>ADL03-Total Points for 'Don't Know'</nciodm:CDISCSynonym>
                    <nciodm:CDISCDefinition>Alzheimer's Disease Cooperative Study-Activities of Daily Living Inventory, MCI Version - Were any questions (1-18) answered 'Don't Know'? If yes, calculate total points for 'Don't Know'.</nciodm:CDISCDefinition>
                    <nciodm:PreferredTerm>ADCS-ADL MCI - Points for Questions (1-18) Answered 'Don't Know'</nciodm:PreferredTerm>
                </EnumeratedItem>
                <EnumeratedItem CodedValue="ADL03-Use a Telephone" nciodm:ExtCodeID="C106906">
                    <nciodm:CDISCSynonym>ADL03-Use a Telephone</nciodm:CDISCSynonym>
                    <nciodm:CDISCDefinition>Alzheimer's Disease Cooperative Study-Activities of Daily Living Inventory, MCI Version - In the past 4 weeks, did {S} use a telephone?</nciodm:CDISCDefinition>
                    <nciodm:PreferredTerm>ADCS-ADL MCI - Use a Telephone</nciodm:PreferredTerm>
                </EnumeratedItem>
                <EnumeratedItem CodedValue="ADL03-Use Common Used Appliances (q17a)" nciodm:ExtCodeID="C106941">
                    <nciodm:CDISCSynonym>ADL03-Use Common Used Appliances (q17a)</nciodm:CDISCSynonym>
                    <nciodm:CDISCDefinition>Alzheimer's Disease Cooperative Study-Activities of Daily Living Inventory, MCI Version - For the 1 or 2 most commonly used appliances, which best describes how {S} usually used them.</nciodm:CDISCDefinition>
                    <nciodm:PreferredTerm>ADCS-ADL MCI - Description of Usual Use of Commonly Used Appliances</nciodm:PreferredTerm>
                </EnumeratedItem>
                <EnumeratedItem CodedValue="ADL03-Use Household Appliance" nciodm:ExtCodeID="C106932">
                    <nciodm:CDISCSynonym>ADL03-Use Household Appliance</nciodm:CDISCSynonym>
                    <nciodm:CDISCDefinition>Alzheimer's Disease Cooperative Study-Activities of Daily Living Inventory, MCI Version - In the past 4 weeks, did {S} use a household appliance to do chores?</nciodm:CDISCDefinition>
                    <nciodm:PreferredTerm>ADCS-ADL MCI - Use Household Appliance</nciodm:PreferredTerm>
                </EnumeratedItem>
                <EnumeratedItem CodedValue="ADL03-Usual Dressing Performance" nciodm:ExtCodeID="C106894">
                    <nciodm:CDISCSynonym>ADL03-Usual Dressing Performance</nciodm:CDISCSynonym>
                    <nciodm:CDISCDefinition>Alzheimer's Disease Cooperative Study-Activities of Daily Living Inventory, MCI Version - If yes, which best describes his/her usual performance.</nciodm:CDISCDefinition>
                    <nciodm:PreferredTerm>ADCS-ADL MCI - Description of Usual Performance of Selecting First Clothes for the Day</nciodm:PreferredTerm>
                </EnumeratedItem>
                <EnumeratedItem CodedValue="ADL03-Usual Physically Dressing Perform" nciodm:ExtCodeID="C106895">
                    <nciodm:CDISCSynonym>ADL03-Usual Physically Dressing Perform</nciodm:CDISCSynonym>
                    <nciodm:CDISCDefinition>Alzheimer's Disease Cooperative Study-Activities of Daily Living Inventory, MCI Version - Regarding physically getting dressed, which best describes his/her usual performance in the past 4 weeks.</nciodm:CDISCDefinition>
                    <nciodm:PreferredTerm>ADCS-ADL MCI - Description of Usual Performance of Physically Getting Dressed</nciodm:PreferredTerm>
                </EnumeratedItem>
                <EnumeratedItem CodedValue="ADL03-Watch Television" nciodm:ExtCodeID="C106921">
                    <nciodm:CDISCSynonym>ADL03-Watch Television</nciodm:CDISCSynonym>
                    <nciodm:CDISCDefinition>Alzheimer's Disease Cooperative Study-Activities of Daily Living Inventory, MCI Version - In the past 4 weeks, did {S} watch television?</nciodm:CDISCDefinition>
                    <nciodm:PreferredTerm>ADCS-ADL MCI - Watch Television</nciodm:PreferredTerm>
                </EnumeratedItem>
                <EnumeratedItem CodedValue="ADL03-Write Things Down" nciodm:ExtCodeID="C106900">
                    <nciodm:CDISCSynonym>ADL03-Write Things Down</nciodm:CDISCSynonym>
                    <nciodm:CDISCDefinition>Alzheimer's Disease Cooperative Study-Activities of Daily Living Inventory, MCI Version - In the past 4 weeks, did {S} ever write things down?</nciodm:CDISCDefinition>
                    <nciodm:PreferredTerm>ADCS-ADL MCI - Write Things Down</nciodm:PreferredTerm>
                </EnumeratedItem>
                <nciodm:CDISCSubmissionValue>ADL03TN</nciodm:CDISCSubmissionValue>
                <nciodm:CDISCSynonym>Alzheimer's Disease Cooperative Study-Activities of Daily Living Inventory MCI Version Questionnaire Test Name</nciodm:CDISCSynonym>
                <nciodm:PreferredTerm>CDISC Questionnaire ADCS-ADL MCI Test Name Terminology</nciodm:PreferredTerm>
            </CodeList>
            
