<CodeList xmlns="http://www.cdisc.org/ns/odm/v1.3" xmlns:nciodm="http://ncicb.nci.nih.gov/xml/odm/EVS/CDISC" xmlns:xs="http://www.w3.org/2001/XMLSchema-instance" OID="CL.C100165.RDQ01TN" Name="Roland Morris Disability Questionnaire Questionnaire Test Name" DataType="text" nciodm:ExtCodeID="C100165" nciodm:CodeListExtensible="No">
                <Description>
                    <TranslatedText xml:lang="en">Roland Morris Disability Questionnaire test name.</TranslatedText>
                </Description>
                <EnumeratedItem CodedValue="RDQ01-Appetite is Not Very Good" nciodm:ExtCodeID="C100794">
                    <nciodm:CDISCSynonym>RDQ01-Appetite is Not Very Good</nciodm:CDISCSynonym>
                    <nciodm:CDISCDefinition>Roland Morris Disability Questionnaire - My appetite is not very good because of my back pain.</nciodm:CDISCDefinition>
                    <nciodm:PreferredTerm>RDQ - Appetite is Not Very Good</nciodm:PreferredTerm>
                </EnumeratedItem>
                <EnumeratedItem CodedValue="RDQ01-Avoid Heavy Jobs" nciodm:ExtCodeID="C100800">
                    <nciodm:CDISCSynonym>RDQ01-Avoid Heavy Jobs</nciodm:CDISCSynonym>
                    <nciodm:CDISCDefinition>Roland Morris Disability Questionnaire - I avoid heavy jobs around the house because of my back.</nciodm:CDISCDefinition>
                    <nciodm:PreferredTerm>RDQ - Avoid Heavy Jobs</nciodm:PreferredTerm>
                </EnumeratedItem>
                <EnumeratedItem CodedValue="RDQ01-Change Position Frequently" nciodm:ExtCodeID="C100781">
                    <nciodm:CDISCSynonym>RDQ01-Change Position Frequently</nciodm:CDISCSynonym>
                    <nciodm:CDISCDefinition>Roland Morris Disability Questionnaire - I change position frequently to try and get my back comfortable.</nciodm:CDISCDefinition>
                    <nciodm:PreferredTerm>RDQ - Change Position Frequently</nciodm:PreferredTerm>
                </EnumeratedItem>
                <EnumeratedItem CodedValue="RDQ01-Difficult to Get Out of a Chair" nciodm:ExtCodeID="C100791">
                    <nciodm:CDISCSynonym>RDQ01-Difficult to Get Out of a Chair</nciodm:CDISCSynonym>
                    <nciodm:CDISCDefinition>Roland Morris Disability Questionnaire - I find it difficult to get out of a chair because of my back.</nciodm:CDISCDefinition>
                    <nciodm:PreferredTerm>RDQ - Difficult to Get Out of a Chair</nciodm:PreferredTerm>
                </EnumeratedItem>
                <EnumeratedItem CodedValue="RDQ01-Difficult to Turn Over in Bed" nciodm:ExtCodeID="C100793">
                    <nciodm:CDISCSynonym>RDQ01-Difficult to Turn Over in Bed</nciodm:CDISCSynonym>
                    <nciodm:CDISCDefinition>Roland Morris Disability Questionnaire - I find it difficult to turn over in bed because of my back.</nciodm:CDISCDefinition>
                    <nciodm:PreferredTerm>RDQ - Difficult to Turn Over in Bed</nciodm:PreferredTerm>
                </EnumeratedItem>
                <EnumeratedItem CodedValue="RDQ01-Get Dressed More Slowly" nciodm:ExtCodeID="C100788">
                    <nciodm:CDISCSynonym>RDQ01-Get Dressed More Slowly</nciodm:CDISCSynonym>
                    <nciodm:CDISCDefinition>Roland Morris Disability Questionnaire - I get dressed more slowly then usual because of my back.</nciodm:CDISCDefinition>
                    <nciodm:PreferredTerm>RDQ - Get Dressed More Slowly</nciodm:PreferredTerm>
                </EnumeratedItem>
                <EnumeratedItem CodedValue="RDQ01-Get Dressed With Help" nciodm:ExtCodeID="C100798">
                    <nciodm:CDISCSynonym>RDQ01-Get Dressed With Help</nciodm:CDISCSynonym>
                    <nciodm:CDISCDefinition>Roland Morris Disability Questionnaire - Because of my back pain, I get dressed with help from someone else.</nciodm:CDISCDefinition>
                    <nciodm:PreferredTerm>RDQ - Get Dressed With Help</nciodm:PreferredTerm>
                </EnumeratedItem>
                <EnumeratedItem CodedValue="RDQ01-Get Other People to Do Things" nciodm:ExtCodeID="C100787">
                    <nciodm:CDISCSynonym>RDQ01-Get Other People to Do Things</nciodm:CDISCSynonym>
                    <nciodm:CDISCDefinition>Roland Morris Disability Questionnaire - Because of my back, I try to get other people to do things for me.</nciodm:CDISCDefinition>
                    <nciodm:PreferredTerm>RDQ - Get Other People to Do Things</nciodm:PreferredTerm>
                </EnumeratedItem>
                <EnumeratedItem CodedValue="RDQ01-Go Upstairs More Slowly" nciodm:ExtCodeID="C100802">
                    <nciodm:CDISCSynonym>RDQ01-Go Upstairs More Slowly</nciodm:CDISCSynonym>
                    <nciodm:CDISCDefinition>Roland Morris Disability Questionnaire - Because of my back, I go upstairs more slowly than usual.</nciodm:CDISCDefinition>
                    <nciodm:PreferredTerm>RDQ - Go Upstairs More Slowly</nciodm:PreferredTerm>
                </EnumeratedItem>
                <EnumeratedItem CodedValue="RDQ01-Hold on to Get Out of a Chair" nciodm:ExtCodeID="C100786">
                    <nciodm:CDISCSynonym>RDQ01-Hold on to Get Out of a Chair</nciodm:CDISCSynonym>
                    <nciodm:CDISCDefinition>Roland Morris Disability Questionnaire - Because of my back, I have to hold on to something to get out of an easy chair.</nciodm:CDISCDefinition>
                    <nciodm:PreferredTerm>RDQ - Hold on to Get Out of a Chair</nciodm:PreferredTerm>
                </EnumeratedItem>
                <EnumeratedItem CodedValue="RDQ01-Lie Down to Rest More Often" nciodm:ExtCodeID="C100785">
                    <nciodm:CDISCSynonym>RDQ01-Lie Down to Rest More Often</nciodm:CDISCSynonym>
                    <nciodm:CDISCDefinition>Roland Morris Disability Questionnaire - Because of my back, I lie down to rest more often.</nciodm:CDISCDefinition>
                    <nciodm:PreferredTerm>RDQ - Lie Down to Rest More Often</nciodm:PreferredTerm>
                </EnumeratedItem>
                <EnumeratedItem CodedValue="RDQ01-More Irritable With People" nciodm:ExtCodeID="C100801">
                    <nciodm:CDISCSynonym>RDQ01-More Irritable With People</nciodm:CDISCSynonym>
                    <nciodm:CDISCDefinition>Roland Morris Disability Questionnaire - Because of my back pain, I am more irritable and bad tempered with people than usual.</nciodm:CDISCDefinition>
                    <nciodm:PreferredTerm>RDQ - More Irritable With People</nciodm:PreferredTerm>
                </EnumeratedItem>
                <EnumeratedItem CodedValue="RDQ01-Not Do Any Usual Jobs" nciodm:ExtCodeID="C100783">
                    <nciodm:CDISCSynonym>RDQ01-Not Do Any Usual Jobs</nciodm:CDISCSynonym>
                    <nciodm:CDISCDefinition>Roland Morris Disability Questionnaire - Because of my back, I am not doing any of the jobs that I usually do around the house.</nciodm:CDISCDefinition>
                    <nciodm:PreferredTerm>RDQ - Not Do Any Usual House Jobs</nciodm:PreferredTerm>
                </EnumeratedItem>
                <EnumeratedItem CodedValue="RDQ01-Only Stand for Short Periods" nciodm:ExtCodeID="C100789">
                    <nciodm:CDISCSynonym>RDQ01-Only Stand for Short Periods</nciodm:CDISCSynonym>
                    <nciodm:CDISCDefinition>Roland Morris Disability Questionnaire - I only stand for short periods of time because of my back.</nciodm:CDISCDefinition>
                    <nciodm:PreferredTerm>RDQ - Only Stand for Short Periods</nciodm:PreferredTerm>
                </EnumeratedItem>
                <EnumeratedItem CodedValue="RDQ01-Only Walk Short Distances" nciodm:ExtCodeID="C100796">
                    <nciodm:CDISCSynonym>RDQ01-Only Walk Short Distances</nciodm:CDISCSynonym>
                    <nciodm:CDISCDefinition>Roland Morris Disability Questionnaire - I only walk short distances because of my back.</nciodm:CDISCDefinition>
                    <nciodm:PreferredTerm>RDQ - Only Walk Short Distances</nciodm:PreferredTerm>
                </EnumeratedItem>
                <EnumeratedItem CodedValue="RDQ01-Painful Almost All the Time" nciodm:ExtCodeID="C100792">
                    <nciodm:CDISCSynonym>RDQ01-Painful Almost All the Time</nciodm:CDISCSynonym>
                    <nciodm:CDISCDefinition>Roland Morris Disability Questionnaire - My back is painful almost all the time.</nciodm:CDISCDefinition>
                    <nciodm:PreferredTerm>RDQ - Painful Almost All the Time</nciodm:PreferredTerm>
                </EnumeratedItem>
                <EnumeratedItem CodedValue="RDQ01-RDQ Total Score" nciodm:ExtCodeID="C100804">
                    <nciodm:CDISCSynonym>RDQ01-RDQ Total Score</nciodm:CDISCSynonym>
                    <nciodm:CDISCDefinition>Roland Morris Disability Questionnaire - RDQ total derived score.</nciodm:CDISCDefinition>
                    <nciodm:PreferredTerm>RDQ - Total Derived Score</nciodm:PreferredTerm>
                </EnumeratedItem>
                <EnumeratedItem CodedValue="RDQ01-Sit Down Most of the Day" nciodm:ExtCodeID="C100799">
                    <nciodm:CDISCSynonym>RDQ01-Sit Down Most of the Day</nciodm:CDISCSynonym>
                    <nciodm:CDISCDefinition>Roland Morris Disability Questionnaire - I sit down for most of the day because of my back.</nciodm:CDISCDefinition>
                    <nciodm:PreferredTerm>RDQ - Sit Down Most of the Day</nciodm:PreferredTerm>
                </EnumeratedItem>
                <EnumeratedItem CodedValue="RDQ01-Sleep Less Well" nciodm:ExtCodeID="C100797">
                    <nciodm:CDISCSynonym>RDQ01-Sleep Less Well</nciodm:CDISCSynonym>
                    <nciodm:CDISCDefinition>Roland Morris Disability Questionnaire - I sleep less well because of my back.</nciodm:CDISCDefinition>
                    <nciodm:PreferredTerm>RDQ - Sleep Less Well</nciodm:PreferredTerm>
                </EnumeratedItem>
                <EnumeratedItem CodedValue="RDQ01-Stay at Home" nciodm:ExtCodeID="C100780">
                    <nciodm:CDISCSynonym>RDQ01-Stay at Home</nciodm:CDISCSynonym>
                    <nciodm:CDISCDefinition>Roland Morris Disability Questionnaire - I stay at home most of the time because of my back.</nciodm:CDISCDefinition>
                    <nciodm:PreferredTerm>RDQ - Stay at Home</nciodm:PreferredTerm>
                </EnumeratedItem>
                <EnumeratedItem CodedValue="RDQ01-Stay in Bed" nciodm:ExtCodeID="C100803">
                    <nciodm:CDISCSynonym>RDQ01-Stay in Bed</nciodm:CDISCSynonym>
                    <nciodm:CDISCDefinition>Roland Morris Disability Questionnaire - I stay in bed most of the time because of my back.</nciodm:CDISCDefinition>
                    <nciodm:PreferredTerm>RDQ - Stay in Bed</nciodm:PreferredTerm>
                </EnumeratedItem>
                <EnumeratedItem CodedValue="RDQ01-Trouble Putting on Socks/Stockings" nciodm:ExtCodeID="C100795">
                    <nciodm:CDISCSynonym>RDQ01-Trouble Putting on Socks/Stockings</nciodm:CDISCSynonym>
                    <nciodm:CDISCDefinition>Roland Morris Disability Questionnaire - I have trouble putting on my socks (or stockings) because of the pain in my back.</nciodm:CDISCDefinition>
                    <nciodm:PreferredTerm>RDQ - Trouble Putting on Socks or Stockings</nciodm:PreferredTerm>
                </EnumeratedItem>
                <EnumeratedItem CodedValue="RDQ01-Try Not to Bend or Kneel" nciodm:ExtCodeID="C100790">
                    <nciodm:CDISCSynonym>RDQ01-Try Not to Bend or Kneel</nciodm:CDISCSynonym>
                    <nciodm:CDISCDefinition>Roland Morris Disability Questionnaire - Because of my back, I try not to bend or kneel down.</nciodm:CDISCDefinition>
                    <nciodm:PreferredTerm>RDQ - Try Not to Bend or Kneel</nciodm:PreferredTerm>
                </EnumeratedItem>
                <EnumeratedItem CodedValue="RDQ01-Use Handrail to Get Upstairs" nciodm:ExtCodeID="C100784">
                    <nciodm:CDISCSynonym>RDQ01-Use Handrail to Get Upstairs</nciodm:CDISCSynonym>
                    <nciodm:CDISCDefinition>Roland Morris Disability Questionnaire - Because of my back, I use a handrail to get upstairs.</nciodm:CDISCDefinition>
                    <nciodm:PreferredTerm>RDQ - Use Handrail to Get Upstairs</nciodm:PreferredTerm>
                </EnumeratedItem>
                <EnumeratedItem CodedValue="RDQ01-Walk More Slowly" nciodm:ExtCodeID="C100782">
                    <nciodm:CDISCSynonym>RDQ01-Walk More Slowly</nciodm:CDISCSynonym>
                    <nciodm:CDISCDefinition>Roland Morris Disability Questionnaire - I walk more slowly than usual because of my back.</nciodm:CDISCDefinition>
                    <nciodm:PreferredTerm>RDQ - Walk More Slowly</nciodm:PreferredTerm>
                </EnumeratedItem>
                <nciodm:CDISCSubmissionValue>RDQ01TN</nciodm:CDISCSubmissionValue>
                <nciodm:CDISCSynonym>Roland Morris Disability Questionnaire Questionnaire Test Name</nciodm:CDISCSynonym>
                <nciodm:PreferredTerm>CDISC Questionnaire RDQ Test Name Terminology</nciodm:PreferredTerm>
            </CodeList>
            
