<CodeList xmlns="http://www.cdisc.org/ns/odm/v1.3" xmlns:nciodm="http://ncicb.nci.nih.gov/xml/odm/EVS/CDISC" xmlns:xs="http://www.w3.org/2001/XMLSchema-instance" OID="CL.C101808.AVLT TEST" Name="ADNI Auditory Verbal Learning Functional Test Test Name" DataType="text" nciodm:ExtCodeID="C101808" nciodm:CodeListExtensible="No">
                <Description>
                    <TranslatedText xml:lang="en">ADNI AVLT test name.</TranslatedText>
                </Description>
                <EnumeratedItem CodedValue="AVL01-List A 30 Min Delay Intrusions" nciodm:ExtCodeID="C102031">
                    <nciodm:CDISCSynonym>AVL01-List A 30 Min Delay Intrusions</nciodm:CDISCSynonym>
                    <nciodm:CDISCDefinition>Auditory Verbal Learning Test Version A - The number of intrusions while recalling List A, 30 Minute Delay.</nciodm:CDISCDefinition>
                    <nciodm:PreferredTerm>ADNI AVLT - List A 30 Min Delay Intrusions</nciodm:PreferredTerm>
                </EnumeratedItem>
                <EnumeratedItem CodedValue="AVL01-List A 30 Min Delay Recall Total" nciodm:ExtCodeID="C102030">
                    <nciodm:CDISCSynonym>AVL01-List A 30 Min Delay Recall Total</nciodm:CDISCSynonym>
                    <nciodm:CDISCDefinition>Auditory Verbal Learning Test Version A - The number of words recalled from List A, 30 Minute Delay recall.</nciodm:CDISCDefinition>
                    <nciodm:PreferredTerm>ADNI AVLT - List A 30 Min Delay Recall Total</nciodm:PreferredTerm>
                </EnumeratedItem>
                <EnumeratedItem CodedValue="AVL01-List A 30 Min Delay Recall Word 1" nciodm:ExtCodeID="C102015">
                    <nciodm:CDISCSynonym>AVL01-List A 30 Min Delay Recall Word 1</nciodm:CDISCSynonym>
                    <nciodm:CDISCDefinition>Auditory Verbal Learning Test Version A - List A, 30 Minute Delay Recall, Word 1.</nciodm:CDISCDefinition>
                    <nciodm:PreferredTerm>ADNI AVLT - List A 30 Min Delay Recall Word 1</nciodm:PreferredTerm>
                </EnumeratedItem>
                <EnumeratedItem CodedValue="AVL01-List A 30 Min Delay Recall Word 10" nciodm:ExtCodeID="C102024">
                    <nciodm:CDISCSynonym>AVL01-List A 30 Min Delay Recall Word 10</nciodm:CDISCSynonym>
                    <nciodm:CDISCDefinition>Auditory Verbal Learning Test Version A - List A, 30 Minute Delay Recall, Word 10.</nciodm:CDISCDefinition>
                    <nciodm:PreferredTerm>ADNI AVLT - List A 30 Min Delay Recall Word 10</nciodm:PreferredTerm>
                </EnumeratedItem>
                <EnumeratedItem CodedValue="AVL01-List A 30 Min Delay Recall Word 11" nciodm:ExtCodeID="C102025">
                    <nciodm:CDISCSynonym>AVL01-List A 30 Min Delay Recall Word 11</nciodm:CDISCSynonym>
                    <nciodm:CDISCDefinition>Auditory Verbal Learning Test Version A - List A, 30 Minute Delay Recall, Word 11.</nciodm:CDISCDefinition>
                    <nciodm:PreferredTerm>ADNI AVLT - List A 30 Min Delay Recall Word 11</nciodm:PreferredTerm>
                </EnumeratedItem>
                <EnumeratedItem CodedValue="AVL01-List A 30 Min Delay Recall Word 12" nciodm:ExtCodeID="C102026">
                    <nciodm:CDISCSynonym>AVL01-List A 30 Min Delay Recall Word 12</nciodm:CDISCSynonym>
                    <nciodm:CDISCDefinition>Auditory Verbal Learning Test Version A - List A, 30 Minute Delay Recall, Word 12.</nciodm:CDISCDefinition>
                    <nciodm:PreferredTerm>ADNI AVLT - List A 30 Min Delay Recall Word 12</nciodm:PreferredTerm>
                </EnumeratedItem>
                <EnumeratedItem CodedValue="AVL01-List A 30 Min Delay Recall Word 13" nciodm:ExtCodeID="C102027">
                    <nciodm:CDISCSynonym>AVL01-List A 30 Min Delay Recall Word 13</nciodm:CDISCSynonym>
                    <nciodm:CDISCDefinition>Auditory Verbal Learning Test Version A - List A, 30 Minute Delay Recall, Word 13.</nciodm:CDISCDefinition>
                    <nciodm:PreferredTerm>ADNI AVLT - List A 30 Min Delay Recall Word 13</nciodm:PreferredTerm>
                </EnumeratedItem>
                <EnumeratedItem CodedValue="AVL01-List A 30 Min Delay Recall Word 14" nciodm:ExtCodeID="C102028">
                    <nciodm:CDISCSynonym>AVL01-List A 30 Min Delay Recall Word 14</nciodm:CDISCSynonym>
                    <nciodm:CDISCDefinition>Auditory Verbal Learning Test Version A - List A, 30 Minute Delay Recall, Word 14.</nciodm:CDISCDefinition>
                    <nciodm:PreferredTerm>ADNI AVLT - List A 30 Min Delay Recall Word 14</nciodm:PreferredTerm>
                </EnumeratedItem>
                <EnumeratedItem CodedValue="AVL01-List A 30 Min Delay Recall Word 15" nciodm:ExtCodeID="C102029">
                    <nciodm:CDISCSynonym>AVL01-List A 30 Min Delay Recall Word 15</nciodm:CDISCSynonym>
                    <nciodm:CDISCDefinition>Auditory Verbal Learning Test Version A - List A, 30 Minute Delay Recall, Word 15.</nciodm:CDISCDefinition>
                    <nciodm:PreferredTerm>ADNI AVLT - List A 30 Min Delay Recall Word 15</nciodm:PreferredTerm>
                </EnumeratedItem>
                <EnumeratedItem CodedValue="AVL01-List A 30 Min Delay Recall Word 2" nciodm:ExtCodeID="C102016">
                    <nciodm:CDISCSynonym>AVL01-List A 30 Min Delay Recall Word 2</nciodm:CDISCSynonym>
                    <nciodm:CDISCDefinition>Auditory Verbal Learning Test Version A - List A, 30 Minute Delay Recall, Word 2.</nciodm:CDISCDefinition>
                    <nciodm:PreferredTerm>ADNI AVLT - List A 30 Min Delay Recall Word 2</nciodm:PreferredTerm>
                </EnumeratedItem>
                <EnumeratedItem CodedValue="AVL01-List A 30 Min Delay Recall Word 3" nciodm:ExtCodeID="C102017">
                    <nciodm:CDISCSynonym>AVL01-List A 30 Min Delay Recall Word 3</nciodm:CDISCSynonym>
                    <nciodm:CDISCDefinition>Auditory Verbal Learning Test Version A - List A, 30 Minute Delay Recall, Word 3.</nciodm:CDISCDefinition>
                    <nciodm:PreferredTerm>ADNI AVLT - List A 30 Min Delay Recall Word 3</nciodm:PreferredTerm>
                </EnumeratedItem>
                <EnumeratedItem CodedValue="AVL01-List A 30 Min Delay Recall Word 4" nciodm:ExtCodeID="C102018">
                    <nciodm:CDISCSynonym>AVL01-List A 30 Min Delay Recall Word 4</nciodm:CDISCSynonym>
                    <nciodm:CDISCDefinition>Auditory Verbal Learning Test Version A - List A, 30 Minute Delay Recall, Word 4.</nciodm:CDISCDefinition>
                    <nciodm:PreferredTerm>ADNI AVLT - List A 30 Min Delay Recall Word 4</nciodm:PreferredTerm>
                </EnumeratedItem>
                <EnumeratedItem CodedValue="AVL01-List A 30 Min Delay Recall Word 5" nciodm:ExtCodeID="C102019">
                    <nciodm:CDISCSynonym>AVL01-List A 30 Min Delay Recall Word 5</nciodm:CDISCSynonym>
                    <nciodm:CDISCDefinition>Auditory Verbal Learning Test Version A - List A, 30 Minute Delay Recall, Word 5.</nciodm:CDISCDefinition>
                    <nciodm:PreferredTerm>ADNI AVLT - List A 30 Min Delay Recall Word 5</nciodm:PreferredTerm>
                </EnumeratedItem>
                <EnumeratedItem CodedValue="AVL01-List A 30 Min Delay Recall Word 6" nciodm:ExtCodeID="C102020">
                    <nciodm:CDISCSynonym>AVL01-List A 30 Min Delay Recall Word 6</nciodm:CDISCSynonym>
                    <nciodm:CDISCDefinition>Auditory Verbal Learning Test Version A - List A, 30 Minute Delay Recall, Word 6.</nciodm:CDISCDefinition>
                    <nciodm:PreferredTerm>ADNI AVLT - List A 30 Min Delay Recall Word 6</nciodm:PreferredTerm>
                </EnumeratedItem>
                <EnumeratedItem CodedValue="AVL01-List A 30 Min Delay Recall Word 7" nciodm:ExtCodeID="C102021">
                    <nciodm:CDISCSynonym>AVL01-List A 30 Min Delay Recall Word 7</nciodm:CDISCSynonym>
                    <nciodm:CDISCDefinition>Auditory Verbal Learning Test Version A - List A, 30 Minute Delay Recall, Word 7.</nciodm:CDISCDefinition>
                    <nciodm:PreferredTerm>ADNI AVLT - List A 30 Min Delay Recall Word 7</nciodm:PreferredTerm>
                </EnumeratedItem>
                <EnumeratedItem CodedValue="AVL01-List A 30 Min Delay Recall Word 8" nciodm:ExtCodeID="C102022">
                    <nciodm:CDISCSynonym>AVL01-List A 30 Min Delay Recall Word 8</nciodm:CDISCSynonym>
                    <nciodm:CDISCDefinition>Auditory Verbal Learning Test Version A - List A, 30 Minute Delay Recall, Word 8.</nciodm:CDISCDefinition>
                    <nciodm:PreferredTerm>ADNI AVLT - List A 30 Min Delay Recall Word 8</nciodm:PreferredTerm>
                </EnumeratedItem>
                <EnumeratedItem CodedValue="AVL01-List A 30 Min Delay Recall Word 9" nciodm:ExtCodeID="C102023">
                    <nciodm:CDISCSynonym>AVL01-List A 30 Min Delay Recall Word 9</nciodm:CDISCSynonym>
                    <nciodm:CDISCDefinition>Auditory Verbal Learning Test Version A - List A, 30 Minute Delay Recall, Word 9.</nciodm:CDISCDefinition>
                    <nciodm:PreferredTerm>ADNI AVLT - List A 30 Min Delay Recall Word 9</nciodm:PreferredTerm>
                </EnumeratedItem>
                <EnumeratedItem CodedValue="AVL01-List A Intrusions 1" nciodm:ExtCodeID="C101912">
                    <nciodm:CDISCSynonym>AVL01-List A Intrusions 1</nciodm:CDISCSynonym>
                    <nciodm:CDISCDefinition>Auditory Verbal Learning Test Version A - The number of intrusions while recalling List A, first attempt.</nciodm:CDISCDefinition>
                    <nciodm:PreferredTerm>ADNI AVLT - List A Intrusions 1</nciodm:PreferredTerm>
                </EnumeratedItem>
                <EnumeratedItem CodedValue="AVL01-List A Intrusions 2" nciodm:ExtCodeID="C101929">
                    <nciodm:CDISCSynonym>AVL01-List A Intrusions 2</nciodm:CDISCSynonym>
                    <nciodm:CDISCDefinition>Auditory Verbal Learning Test Version A - The number of intrusions while recalling List A, second attempt.</nciodm:CDISCDefinition>
                    <nciodm:PreferredTerm>ADNI AVLT - List A Intrusions 2</nciodm:PreferredTerm>
                </EnumeratedItem>
                <EnumeratedItem CodedValue="AVL01-List A Intrusions 3" nciodm:ExtCodeID="C101946">
                    <nciodm:CDISCSynonym>AVL01-List A Intrusions 3</nciodm:CDISCSynonym>
                    <nciodm:CDISCDefinition>Auditory Verbal Learning Test Version A - The number of intrusions while recalling List A, third attempt.</nciodm:CDISCDefinition>
                    <nciodm:PreferredTerm>ADNI AVLT - List A Intrusions 3</nciodm:PreferredTerm>
                </EnumeratedItem>
                <EnumeratedItem CodedValue="AVL01-List A Intrusions 4" nciodm:ExtCodeID="C101963">
                    <nciodm:CDISCSynonym>AVL01-List A Intrusions 4</nciodm:CDISCSynonym>
                    <nciodm:CDISCDefinition>Auditory Verbal Learning Test Version A - The number of intrusions while recalling List A, fourth attempt.</nciodm:CDISCDefinition>
                    <nciodm:PreferredTerm>ADNI AVLT - List A Intrusions 4</nciodm:PreferredTerm>
                </EnumeratedItem>
                <EnumeratedItem CodedValue="AVL01-List A Intrusions 5" nciodm:ExtCodeID="C101980">
                    <nciodm:CDISCSynonym>AVL01-List A Intrusions 5</nciodm:CDISCSynonym>
                    <nciodm:CDISCDefinition>Auditory Verbal Learning Test Version A - The number of intrusions while recalling List A, fifth attempt.</nciodm:CDISCDefinition>
                    <nciodm:PreferredTerm>ADNI AVLT - List A Intrusions 5</nciodm:PreferredTerm>
                </EnumeratedItem>
                <EnumeratedItem CodedValue="AVL01-List A Intrusions 6" nciodm:ExtCodeID="C101997">
                    <nciodm:CDISCSynonym>AVL01-List A Intrusions 6</nciodm:CDISCSynonym>
                    <nciodm:CDISCDefinition>Auditory Verbal Learning Test Version A - The number of intrusions while recalling List A, sixth attempt (after List B recall).</nciodm:CDISCDefinition>
                    <nciodm:PreferredTerm>ADNI AVLT - List A Intrusions 6</nciodm:PreferredTerm>
                </EnumeratedItem>
                <EnumeratedItem CodedValue="AVL01-List A Recall 1 Total" nciodm:ExtCodeID="C101911">
                    <nciodm:CDISCSynonym>AVL01-List A Recall 1 Total</nciodm:CDISCSynonym>
                    <nciodm:CDISCDefinition>Auditory Verbal Learning Test Version A - The number of words recalled from List A, first attempt.</nciodm:CDISCDefinition>
                    <nciodm:PreferredTerm>ADNI AVLT - List A Recall 1 Total</nciodm:PreferredTerm>
                </EnumeratedItem>
                <EnumeratedItem CodedValue="AVL01-List A Recall 1 Word 1" nciodm:ExtCodeID="C101896">
                    <nciodm:CDISCSynonym>AVL01-List A Recall 1 Word 1</nciodm:CDISCSynonym>
                    <nciodm:CDISCDefinition>Auditory Verbal Learning Test Version A - List A, Recall 1, Word 1.</nciodm:CDISCDefinition>
                    <nciodm:PreferredTerm>ADNI AVLT - List A Recall 1 Word 1</nciodm:PreferredTerm>
                </EnumeratedItem>
                <EnumeratedItem CodedValue="AVL01-List A Recall 1 Word 10" nciodm:ExtCodeID="C101905">
                    <nciodm:CDISCSynonym>AVL01-List A Recall 1 Word 10</nciodm:CDISCSynonym>
                    <nciodm:CDISCDefinition>Auditory Verbal Learning Test Version A - List A, Recall 1, Word 10.</nciodm:CDISCDefinition>
                    <nciodm:PreferredTerm>ADNI AVLT - List A Recall 1 Word 10</nciodm:PreferredTerm>
                </EnumeratedItem>
                <EnumeratedItem CodedValue="AVL01-List A Recall 1 Word 11" nciodm:ExtCodeID="C101906">
                    <nciodm:CDISCSynonym>AVL01-List A Recall 1 Word 11</nciodm:CDISCSynonym>
                    <nciodm:CDISCDefinition>Auditory Verbal Learning Test Version A - List A, Recall 1, Word 11.</nciodm:CDISCDefinition>
                    <nciodm:PreferredTerm>ADNI AVLT - List A Recall 1 Word 11</nciodm:PreferredTerm>
                </EnumeratedItem>
                <EnumeratedItem CodedValue="AVL01-List A Recall 1 Word 12" nciodm:ExtCodeID="C101907">
                    <nciodm:CDISCSynonym>AVL01-List A Recall 1 Word 12</nciodm:CDISCSynonym>
                    <nciodm:CDISCDefinition>Auditory Verbal Learning Test Version A - List A, Recall 1, Word 12.</nciodm:CDISCDefinition>
                    <nciodm:PreferredTerm>ADNI AVLT - List A Recall 1 Word 12</nciodm:PreferredTerm>
                </EnumeratedItem>
                <EnumeratedItem CodedValue="AVL01-List A Recall 1 Word 13" nciodm:ExtCodeID="C101908">
                    <nciodm:CDISCSynonym>AVL01-List A Recall 1 Word 13</nciodm:CDISCSynonym>
                    <nciodm:CDISCDefinition>Auditory Verbal Learning Test Version A - List A, Recall 1, Word 13.</nciodm:CDISCDefinition>
                    <nciodm:PreferredTerm>ADNI AVLT - List A Recall 1 Word 13</nciodm:PreferredTerm>
                </EnumeratedItem>
                <EnumeratedItem CodedValue="AVL01-List A Recall 1 Word 14" nciodm:ExtCodeID="C101909">
                    <nciodm:CDISCSynonym>AVL01-List A Recall 1 Word 14</nciodm:CDISCSynonym>
                    <nciodm:CDISCDefinition>Auditory Verbal Learning Test Version A - List A, Recall 1, Word 14.</nciodm:CDISCDefinition>
                    <nciodm:PreferredTerm>ADNI AVLT - List A Recall 1 Word 14</nciodm:PreferredTerm>
                </EnumeratedItem>
                <EnumeratedItem CodedValue="AVL01-List A Recall 1 Word 15" nciodm:ExtCodeID="C101910">
                    <nciodm:CDISCSynonym>AVL01-List A Recall 1 Word 15</nciodm:CDISCSynonym>
                    <nciodm:CDISCDefinition>Auditory Verbal Learning Test Version A - List A, Recall 1, Word 15.</nciodm:CDISCDefinition>
                    <nciodm:PreferredTerm>ADNI AVLT - List A Recall 1 Word 15</nciodm:PreferredTerm>
                </EnumeratedItem>
                <EnumeratedItem CodedValue="AVL01-List A Recall 1 Word 2" nciodm:ExtCodeID="C101897">
                    <nciodm:CDISCSynonym>AVL01-List A Recall 1 Word 2</nciodm:CDISCSynonym>
                    <nciodm:CDISCDefinition>Auditory Verbal Learning Test Version A - List A, Recall 1, Word 2.</nciodm:CDISCDefinition>
                    <nciodm:PreferredTerm>ADNI AVLT - List A Recall 1 Word 2</nciodm:PreferredTerm>
                </EnumeratedItem>
                <EnumeratedItem CodedValue="AVL01-List A Recall 1 Word 3" nciodm:ExtCodeID="C101898">
                    <nciodm:CDISCSynonym>AVL01-List A Recall 1 Word 3</nciodm:CDISCSynonym>
                    <nciodm:CDISCDefinition>Auditory Verbal Learning Test Version A - List A, Recall 1, Word 3.</nciodm:CDISCDefinition>
                    <nciodm:PreferredTerm>ADNI AVLT - List A Recall 1 Word 3</nciodm:PreferredTerm>
                </EnumeratedItem>
                <EnumeratedItem CodedValue="AVL01-List A Recall 1 Word 4" nciodm:ExtCodeID="C101899">
                    <nciodm:CDISCSynonym>AVL01-List A Recall 1 Word 4</nciodm:CDISCSynonym>
                    <nciodm:CDISCDefinition>Auditory Verbal Learning Test Version A - List A, Recall 1, Word 4.</nciodm:CDISCDefinition>
                    <nciodm:PreferredTerm>ADNI AVLT - List A Recall 1 Word 4</nciodm:PreferredTerm>
                </EnumeratedItem>
                <EnumeratedItem CodedValue="AVL01-List A Recall 1 Word 5" nciodm:ExtCodeID="C101900">
                    <nciodm:CDISCSynonym>AVL01-List A Recall 1 Word 5</nciodm:CDISCSynonym>
                    <nciodm:CDISCDefinition>Auditory Verbal Learning Test Version A - List A, Recall 1, Word 5.</nciodm:CDISCDefinition>
                    <nciodm:PreferredTerm>ADNI AVLT - List A Recall 1 Word 5</nciodm:PreferredTerm>
                </EnumeratedItem>
                <EnumeratedItem CodedValue="AVL01-List A Recall 1 Word 6" nciodm:ExtCodeID="C101901">
                    <nciodm:CDISCSynonym>AVL01-List A Recall 1 Word 6</nciodm:CDISCSynonym>
                    <nciodm:CDISCDefinition>Auditory Verbal Learning Test Version A - List A, Recall 1, Word 6.</nciodm:CDISCDefinition>
                    <nciodm:PreferredTerm>ADNI AVLT - List A Recall 1 Word 6</nciodm:PreferredTerm>
                </EnumeratedItem>
                <EnumeratedItem CodedValue="AVL01-List A Recall 1 Word 7" nciodm:ExtCodeID="C101902">
                    <nciodm:CDISCSynonym>AVL01-List A Recall 1 Word 7</nciodm:CDISCSynonym>
                    <nciodm:CDISCDefinition>Auditory Verbal Learning Test Version A - List A, Recall 1, Word 7.</nciodm:CDISCDefinition>
                    <nciodm:PreferredTerm>ADNI AVLT - List A Recall 1 Word 7</nciodm:PreferredTerm>
                </EnumeratedItem>
                <EnumeratedItem CodedValue="AVL01-List A Recall 1 Word 8" nciodm:ExtCodeID="C101903">
                    <nciodm:CDISCSynonym>AVL01-List A Recall 1 Word 8</nciodm:CDISCSynonym>
                    <nciodm:CDISCDefinition>Auditory Verbal Learning Test Version A - List A, Recall 1, Word 8.</nciodm:CDISCDefinition>
                    <nciodm:PreferredTerm>ADNI AVLT - List A Recall 1 Word 8</nciodm:PreferredTerm>
                </EnumeratedItem>
                <EnumeratedItem CodedValue="AVL01-List A Recall 1 Word 9" nciodm:ExtCodeID="C101904">
                    <nciodm:CDISCSynonym>AVL01-List A Recall 1 Word 9</nciodm:CDISCSynonym>
                    <nciodm:CDISCDefinition>Auditory Verbal Learning Test Version A - List A, Recall 1, Word 9.</nciodm:CDISCDefinition>
                    <nciodm:PreferredTerm>ADNI AVLT - List A Recall 1 Word 9</nciodm:PreferredTerm>
                </EnumeratedItem>
                <EnumeratedItem CodedValue="AVL01-List A Recall 2 Total" nciodm:ExtCodeID="C101928">
                    <nciodm:CDISCSynonym>AVL01-List A Recall 2 Total</nciodm:CDISCSynonym>
                    <nciodm:CDISCDefinition>Auditory Verbal Learning Test Version A - The number of words recalled from List A, second attempt.</nciodm:CDISCDefinition>
                    <nciodm:PreferredTerm>ADNI AVLT - List A Recall 2 Total</nciodm:PreferredTerm>
                </EnumeratedItem>
                <EnumeratedItem CodedValue="AVL01-List A Recall 2 Word 1" nciodm:ExtCodeID="C101913">
                    <nciodm:CDISCSynonym>AVL01-List A Recall 2 Word 1</nciodm:CDISCSynonym>
                    <nciodm:CDISCDefinition>Auditory Verbal Learning Test Version A - List A, Recall 2, Word 1.</nciodm:CDISCDefinition>
                    <nciodm:PreferredTerm>ADNI AVLT - List A Recall 2 Word 1</nciodm:PreferredTerm>
                </EnumeratedItem>
                <EnumeratedItem CodedValue="AVL01-List A Recall 2 Word 10" nciodm:ExtCodeID="C101922">
                    <nciodm:CDISCSynonym>AVL01-List A Recall 2 Word 10</nciodm:CDISCSynonym>
                    <nciodm:CDISCDefinition>Auditory Verbal Learning Test Version A - List A, Recall 2, Word 10.</nciodm:CDISCDefinition>
                    <nciodm:PreferredTerm>ADNI AVLT - List A Recall 2 Word 10</nciodm:PreferredTerm>
                </EnumeratedItem>
                <EnumeratedItem CodedValue="AVL01-List A Recall 2 Word 11" nciodm:ExtCodeID="C101923">
                    <nciodm:CDISCSynonym>AVL01-List A Recall 2 Word 11</nciodm:CDISCSynonym>
                    <nciodm:CDISCDefinition>Auditory Verbal Learning Test Version A - List A, Recall 2, Word 11.</nciodm:CDISCDefinition>
                    <nciodm:PreferredTerm>ADNI AVLT - List A Recall 2 Word 11</nciodm:PreferredTerm>
                </EnumeratedItem>
                <EnumeratedItem CodedValue="AVL01-List A Recall 2 Word 12" nciodm:ExtCodeID="C101924">
                    <nciodm:CDISCSynonym>AVL01-List A Recall 2 Word 12</nciodm:CDISCSynonym>
                    <nciodm:CDISCDefinition>Auditory Verbal Learning Test Version A - List A, Recall 2, Word 12.</nciodm:CDISCDefinition>
                    <nciodm:PreferredTerm>ADNI AVLT - List A Recall 2 Word 12</nciodm:PreferredTerm>
                </EnumeratedItem>
                <EnumeratedItem CodedValue="AVL01-List A Recall 2 Word 13" nciodm:ExtCodeID="C101925">
                    <nciodm:CDISCSynonym>AVL01-List A Recall 2 Word 13</nciodm:CDISCSynonym>
                    <nciodm:CDISCDefinition>Auditory Verbal Learning Test Version A - List A, Recall 2, Word 13.</nciodm:CDISCDefinition>
                    <nciodm:PreferredTerm>ADNI AVLT - List A Recall 2 Word 13</nciodm:PreferredTerm>
                </EnumeratedItem>
                <EnumeratedItem CodedValue="AVL01-List A Recall 2 Word 14" nciodm:ExtCodeID="C101926">
                    <nciodm:CDISCSynonym>AVL01-List A Recall 2 Word 14</nciodm:CDISCSynonym>
                    <nciodm:CDISCDefinition>Auditory Verbal Learning Test Version A - List A, Recall 2, Word 14.</nciodm:CDISCDefinition>
                    <nciodm:PreferredTerm>ADNI AVLT - List A Recall 2 Word 14</nciodm:PreferredTerm>
                </EnumeratedItem>
                <EnumeratedItem CodedValue="AVL01-List A Recall 2 Word 15" nciodm:ExtCodeID="C101927">
                    <nciodm:CDISCSynonym>AVL01-List A Recall 2 Word 15</nciodm:CDISCSynonym>
                    <nciodm:CDISCDefinition>Auditory Verbal Learning Test Version A - List A, Recall 2, Word 15.</nciodm:CDISCDefinition>
                    <nciodm:PreferredTerm>ADNI AVLT - List A Recall 2 Word 15</nciodm:PreferredTerm>
                </EnumeratedItem>
                <EnumeratedItem CodedValue="AVL01-List A Recall 2 Word 2" nciodm:ExtCodeID="C101914">
                    <nciodm:CDISCSynonym>AVL01-List A Recall 2 Word 2</nciodm:CDISCSynonym>
                    <nciodm:CDISCDefinition>Auditory Verbal Learning Test Version A - List A, Recall 2, Word 2.</nciodm:CDISCDefinition>
                    <nciodm:PreferredTerm>ADNI AVLT - List A Recall 2 Word 2</nciodm:PreferredTerm>
                </EnumeratedItem>
                <EnumeratedItem CodedValue="AVL01-List A Recall 2 Word 3" nciodm:ExtCodeID="C101915">
                    <nciodm:CDISCSynonym>AVL01-List A Recall 2 Word 3</nciodm:CDISCSynonym>
                    <nciodm:CDISCDefinition>Auditory Verbal Learning Test Version A - List A, Recall 2, Word 3.</nciodm:CDISCDefinition>
                    <nciodm:PreferredTerm>ADNI AVLT - List A Recall 2 Word 3</nciodm:PreferredTerm>
                </EnumeratedItem>
                <EnumeratedItem CodedValue="AVL01-List A Recall 2 Word 4" nciodm:ExtCodeID="C101916">
                    <nciodm:CDISCSynonym>AVL01-List A Recall 2 Word 4</nciodm:CDISCSynonym>
                    <nciodm:CDISCDefinition>Auditory Verbal Learning Test Version A - List A, Recall 2, Word 4.</nciodm:CDISCDefinition>
                    <nciodm:PreferredTerm>ADNI AVLT - List A Recall 2 Word 4</nciodm:PreferredTerm>
                </EnumeratedItem>
                <EnumeratedItem CodedValue="AVL01-List A Recall 2 Word 5" nciodm:ExtCodeID="C101917">
                    <nciodm:CDISCSynonym>AVL01-List A Recall 2 Word 5</nciodm:CDISCSynonym>
                    <nciodm:CDISCDefinition>Auditory Verbal Learning Test Version A - List A, Recall 2, Word 5.</nciodm:CDISCDefinition>
                    <nciodm:PreferredTerm>ADNI AVLT - List A Recall 2 Word 5</nciodm:PreferredTerm>
                </EnumeratedItem>
                <EnumeratedItem CodedValue="AVL01-List A Recall 2 Word 6" nciodm:ExtCodeID="C101918">
                    <nciodm:CDISCSynonym>AVL01-List A Recall 2 Word 6</nciodm:CDISCSynonym>
                    <nciodm:CDISCDefinition>Auditory Verbal Learning Test Version A - List A, Recall 2, Word 6.</nciodm:CDISCDefinition>
                    <nciodm:PreferredTerm>ADNI AVLT - List A Recall 2 Word 6</nciodm:PreferredTerm>
                </EnumeratedItem>
                <EnumeratedItem CodedValue="AVL01-List A Recall 2 Word 7" nciodm:ExtCodeID="C101919">
                    <nciodm:CDISCSynonym>AVL01-List A Recall 2 Word 7</nciodm:CDISCSynonym>
                    <nciodm:CDISCDefinition>Auditory Verbal Learning Test Version A - List A, Recall 2, Word 7.</nciodm:CDISCDefinition>
                    <nciodm:PreferredTerm>ADNI AVLT - List A Recall 2 Word 7</nciodm:PreferredTerm>
                </EnumeratedItem>
                <EnumeratedItem CodedValue="AVL01-List A Recall 2 Word 8" nciodm:ExtCodeID="C101920">
                    <nciodm:CDISCSynonym>AVL01-List A Recall 2 Word 8</nciodm:CDISCSynonym>
                    <nciodm:CDISCDefinition>Auditory Verbal Learning Test Version A - List A, Recall 2, Word 8.</nciodm:CDISCDefinition>
                    <nciodm:PreferredTerm>ADNI AVLT - List A Recall 2 Word 8</nciodm:PreferredTerm>
                </EnumeratedItem>
                <EnumeratedItem CodedValue="AVL01-List A Recall 2 Word 9" nciodm:ExtCodeID="C101921">
                    <nciodm:CDISCSynonym>AVL01-List A Recall 2 Word 9</nciodm:CDISCSynonym>
                    <nciodm:CDISCDefinition>Auditory Verbal Learning Test Version A - List A, Recall 2, Word 9.</nciodm:CDISCDefinition>
                    <nciodm:PreferredTerm>ADNI AVLT - List A Recall 2 Word 9</nciodm:PreferredTerm>
                </EnumeratedItem>
                <EnumeratedItem CodedValue="AVL01-List A Recall 3 Total" nciodm:ExtCodeID="C101945">
                    <nciodm:CDISCSynonym>AVL01-List A Recall 3 Total</nciodm:CDISCSynonym>
                    <nciodm:CDISCDefinition>Auditory Verbal Learning Test Version A - The number of words recalled from List A, third attempt.</nciodm:CDISCDefinition>
                    <nciodm:PreferredTerm>ADNI AVLT - List A Recall 3 Total</nciodm:PreferredTerm>
                </EnumeratedItem>
                <EnumeratedItem CodedValue="AVL01-List A Recall 3 Word 1" nciodm:ExtCodeID="C101930">
                    <nciodm:CDISCSynonym>AVL01-List A Recall 3 Word 1</nciodm:CDISCSynonym>
                    <nciodm:CDISCDefinition>Auditory Verbal Learning Test Version A - List A, Recall 3, Word 1.</nciodm:CDISCDefinition>
                    <nciodm:PreferredTerm>ADNI AVLT - List A Recall 3 Word 1</nciodm:PreferredTerm>
                </EnumeratedItem>
                <EnumeratedItem CodedValue="AVL01-List A Recall 3 Word 10" nciodm:ExtCodeID="C101939">
                    <nciodm:CDISCSynonym>AVL01-List A Recall 3 Word 10</nciodm:CDISCSynonym>
                    <nciodm:CDISCDefinition>Auditory Verbal Learning Test Version A - List A, Recall 3, Word 10.</nciodm:CDISCDefinition>
                    <nciodm:PreferredTerm>ADNI AVLT - List A Recall 3 Word 10</nciodm:PreferredTerm>
                </EnumeratedItem>
                <EnumeratedItem CodedValue="AVL01-List A Recall 3 Word 11" nciodm:ExtCodeID="C101940">
                    <nciodm:CDISCSynonym>AVL01-List A Recall 3 Word 11</nciodm:CDISCSynonym>
                    <nciodm:CDISCDefinition>Auditory Verbal Learning Test Version A - List A, Recall 3, Word 11.</nciodm:CDISCDefinition>
                    <nciodm:PreferredTerm>ADNI AVLT - List A Recall 3 Word 11</nciodm:PreferredTerm>
                </EnumeratedItem>
                <EnumeratedItem CodedValue="AVL01-List A Recall 3 Word 12" nciodm:ExtCodeID="C101941">
                    <nciodm:CDISCSynonym>AVL01-List A Recall 3 Word 12</nciodm:CDISCSynonym>
                    <nciodm:CDISCDefinition>Auditory Verbal Learning Test Version A - List A, Recall 3, Word 12.</nciodm:CDISCDefinition>
                    <nciodm:PreferredTerm>ADNI AVLT - List A Recall 3 Word 12</nciodm:PreferredTerm>
                </EnumeratedItem>
                <EnumeratedItem CodedValue="AVL01-List A Recall 3 Word 13" nciodm:ExtCodeID="C101942">
                    <nciodm:CDISCSynonym>AVL01-List A Recall 3 Word 13</nciodm:CDISCSynonym>
                    <nciodm:CDISCDefinition>Auditory Verbal Learning Test Version A - List A, Recall 3, Word 13.</nciodm:CDISCDefinition>
                    <nciodm:PreferredTerm>ADNI AVLT - List A Recall 3 Word 13</nciodm:PreferredTerm>
                </EnumeratedItem>
                <EnumeratedItem CodedValue="AVL01-List A Recall 3 Word 14" nciodm:ExtCodeID="C101943">
                    <nciodm:CDISCSynonym>AVL01-List A Recall 3 Word 14</nciodm:CDISCSynonym>
                    <nciodm:CDISCDefinition>Auditory Verbal Learning Test Version A - List A, Recall 3, Word 14.</nciodm:CDISCDefinition>
                    <nciodm:PreferredTerm>ADNI AVLT - List A Recall 3 Word 14</nciodm:PreferredTerm>
                </EnumeratedItem>
                <EnumeratedItem CodedValue="AVL01-List A Recall 3 Word 15" nciodm:ExtCodeID="C101944">
                    <nciodm:CDISCSynonym>AVL01-List A Recall 3 Word 15</nciodm:CDISCSynonym>
                    <nciodm:CDISCDefinition>Auditory Verbal Learning Test Version A - List A, Recall 3, Word 15.</nciodm:CDISCDefinition>
                    <nciodm:PreferredTerm>ADNI AVLT - List A Recall 3 Word 15</nciodm:PreferredTerm>
                </EnumeratedItem>
                <EnumeratedItem CodedValue="AVL01-List A Recall 3 Word 2" nciodm:ExtCodeID="C101931">
                    <nciodm:CDISCSynonym>AVL01-List A Recall 3 Word 2</nciodm:CDISCSynonym>
                    <nciodm:CDISCDefinition>Auditory Verbal Learning Test Version A - List A, Recall 3, Word 2.</nciodm:CDISCDefinition>
                    <nciodm:PreferredTerm>ADNI AVLT - List A Recall 3 Word 2</nciodm:PreferredTerm>
                </EnumeratedItem>
                <EnumeratedItem CodedValue="AVL01-List A Recall 3 Word 3" nciodm:ExtCodeID="C101932">
                    <nciodm:CDISCSynonym>AVL01-List A Recall 3 Word 3</nciodm:CDISCSynonym>
                    <nciodm:CDISCDefinition>Auditory Verbal Learning Test Version A - List A, Recall 3, Word 3.</nciodm:CDISCDefinition>
                    <nciodm:PreferredTerm>ADNI AVLT - List A Recall 3 Word 3</nciodm:PreferredTerm>
                </EnumeratedItem>
                <EnumeratedItem CodedValue="AVL01-List A Recall 3 Word 4" nciodm:ExtCodeID="C101933">
                    <nciodm:CDISCSynonym>AVL01-List A Recall 3 Word 4</nciodm:CDISCSynonym>
                    <nciodm:CDISCDefinition>Auditory Verbal Learning Test Version A - List A, Recall 3, Word 4.</nciodm:CDISCDefinition>
                    <nciodm:PreferredTerm>ADNI AVLT - List A Recall 3 Word 4</nciodm:PreferredTerm>
                </EnumeratedItem>
                <EnumeratedItem CodedValue="AVL01-List A Recall 3 Word 5" nciodm:ExtCodeID="C101934">
                    <nciodm:CDISCSynonym>AVL01-List A Recall 3 Word 5</nciodm:CDISCSynonym>
                    <nciodm:CDISCDefinition>Auditory Verbal Learning Test Version A - List A, Recall 3, Word 5.</nciodm:CDISCDefinition>
                    <nciodm:PreferredTerm>ADNI AVLT - List A Recall 3 Word 5</nciodm:PreferredTerm>
                </EnumeratedItem>
                <EnumeratedItem CodedValue="AVL01-List A Recall 3 Word 6" nciodm:ExtCodeID="C101935">
                    <nciodm:CDISCSynonym>AVL01-List A Recall 3 Word 6</nciodm:CDISCSynonym>
                    <nciodm:CDISCDefinition>Auditory Verbal Learning Test Version A - List A, Recall 3, Word 6.</nciodm:CDISCDefinition>
                    <nciodm:PreferredTerm>ADNI AVLT - List A Recall 3 Word 6</nciodm:PreferredTerm>
                </EnumeratedItem>
                <EnumeratedItem CodedValue="AVL01-List A Recall 3 Word 7" nciodm:ExtCodeID="C101936">
                    <nciodm:CDISCSynonym>AVL01-List A Recall 3 Word 7</nciodm:CDISCSynonym>
                    <nciodm:CDISCDefinition>Auditory Verbal Learning Test Version A - List A, Recall 3, Word 7.</nciodm:CDISCDefinition>
                    <nciodm:PreferredTerm>ADNI AVLT - List A Recall 3 Word 7</nciodm:PreferredTerm>
                </EnumeratedItem>
                <EnumeratedItem CodedValue="AVL01-List A Recall 3 Word 8" nciodm:ExtCodeID="C101937">
                    <nciodm:CDISCSynonym>AVL01-List A Recall 3 Word 8</nciodm:CDISCSynonym>
                    <nciodm:CDISCDefinition>Auditory Verbal Learning Test Version A - List A, Recall 3, Word 8.</nciodm:CDISCDefinition>
                    <nciodm:PreferredTerm>ADNI AVLT - List A Recall 3 Word 8</nciodm:PreferredTerm>
                </EnumeratedItem>
                <EnumeratedItem CodedValue="AVL01-List A Recall 3 Word 9" nciodm:ExtCodeID="C101938">
                    <nciodm:CDISCSynonym>AVL01-List A Recall 3 Word 9</nciodm:CDISCSynonym>
                    <nciodm:CDISCDefinition>Auditory Verbal Learning Test Version A - List A, Recall 3, Word 9.</nciodm:CDISCDefinition>
                    <nciodm:PreferredTerm>ADNI AVLT - List A Recall 3 Word 9</nciodm:PreferredTerm>
                </EnumeratedItem>
                <EnumeratedItem CodedValue="AVL01-List A Recall 4 Total" nciodm:ExtCodeID="C101962">
                    <nciodm:CDISCSynonym>AVL01-List A Recall 4 Total</nciodm:CDISCSynonym>
                    <nciodm:CDISCDefinition>Auditory Verbal Learning Test Version A - The number of words recalled from List A, fourth attempt.</nciodm:CDISCDefinition>
                    <nciodm:PreferredTerm>ADNI AVLT - List A Recall 4 Total</nciodm:PreferredTerm>
                </EnumeratedItem>
                <EnumeratedItem CodedValue="AVL01-List A Recall 4 Word 1" nciodm:ExtCodeID="C101947">
                    <nciodm:CDISCSynonym>AVL01-List A Recall 4 Word 1</nciodm:CDISCSynonym>
                    <nciodm:CDISCDefinition>Auditory Verbal Learning Test Version A - List A, Recall 4, Word 1.</nciodm:CDISCDefinition>
                    <nciodm:PreferredTerm>ADNI AVLT - List A Recall 4 Word 1</nciodm:PreferredTerm>
                </EnumeratedItem>
                <EnumeratedItem CodedValue="AVL01-List A Recall 4 Word 10" nciodm:ExtCodeID="C101956">
                    <nciodm:CDISCSynonym>AVL01-List A Recall 4 Word 10</nciodm:CDISCSynonym>
                    <nciodm:CDISCDefinition>Auditory Verbal Learning Test Version A - List A, Recall 4, Word 10.</nciodm:CDISCDefinition>
                    <nciodm:PreferredTerm>ADNI AVLT - List A Recall 4 Word 10</nciodm:PreferredTerm>
                </EnumeratedItem>
                <EnumeratedItem CodedValue="AVL01-List A Recall 4 Word 11" nciodm:ExtCodeID="C101957">
                    <nciodm:CDISCSynonym>AVL01-List A Recall 4 Word 11</nciodm:CDISCSynonym>
                    <nciodm:CDISCDefinition>Auditory Verbal Learning Test Version A - List A, Recall 4, Word 11.</nciodm:CDISCDefinition>
                    <nciodm:PreferredTerm>ADNI AVLT - List A Recall 4 Word 11</nciodm:PreferredTerm>
                </EnumeratedItem>
                <EnumeratedItem CodedValue="AVL01-List A Recall 4 Word 12" nciodm:ExtCodeID="C101958">
                    <nciodm:CDISCSynonym>AVL01-List A Recall 4 Word 12</nciodm:CDISCSynonym>
                    <nciodm:CDISCDefinition>Auditory Verbal Learning Test Version A - List A, Recall 4, Word 12.</nciodm:CDISCDefinition>
                    <nciodm:PreferredTerm>ADNI AVLT - List A Recall 4 Word 12</nciodm:PreferredTerm>
                </EnumeratedItem>
                <EnumeratedItem CodedValue="AVL01-List A Recall 4 Word 13" nciodm:ExtCodeID="C101959">
                    <nciodm:CDISCSynonym>AVL01-List A Recall 4 Word 13</nciodm:CDISCSynonym>
                    <nciodm:CDISCDefinition>Auditory Verbal Learning Test Version A - List A, Recall 4, Word 13.</nciodm:CDISCDefinition>
                    <nciodm:PreferredTerm>ADNI AVLT - List A Recall 4 Word 13</nciodm:PreferredTerm>
                </EnumeratedItem>
                <EnumeratedItem CodedValue="AVL01-List A Recall 4 Word 14" nciodm:ExtCodeID="C101960">
                    <nciodm:CDISCSynonym>AVL01-List A Recall 4 Word 14</nciodm:CDISCSynonym>
                    <nciodm:CDISCDefinition>Auditory Verbal Learning Test Version A - List A, Recall 4, Word 14.</nciodm:CDISCDefinition>
                    <nciodm:PreferredTerm>ADNI AVLT - List A Recall 4 Word 14</nciodm:PreferredTerm>
                </EnumeratedItem>
                <EnumeratedItem CodedValue="AVL01-List A Recall 4 Word 15" nciodm:ExtCodeID="C101961">
                    <nciodm:CDISCSynonym>AVL01-List A Recall 4 Word 15</nciodm:CDISCSynonym>
                    <nciodm:CDISCDefinition>Auditory Verbal Learning Test Version A - List A, Recall 4, Word 15.</nciodm:CDISCDefinition>
                    <nciodm:PreferredTerm>ADNI AVLT - List A Recall 4 Word 15</nciodm:PreferredTerm>
                </EnumeratedItem>
                <EnumeratedItem CodedValue="AVL01-List A Recall 4 Word 2" nciodm:ExtCodeID="C101948">
                    <nciodm:CDISCSynonym>AVL01-List A Recall 4 Word 2</nciodm:CDISCSynonym>
                    <nciodm:CDISCDefinition>Auditory Verbal Learning Test Version A - List A, Recall 4, Word 2.</nciodm:CDISCDefinition>
                    <nciodm:PreferredTerm>ADNI AVLT - List A Recall 4 Word 2</nciodm:PreferredTerm>
                </EnumeratedItem>
                <EnumeratedItem CodedValue="AVL01-List A Recall 4 Word 3" nciodm:ExtCodeID="C101949">
                    <nciodm:CDISCSynonym>AVL01-List A Recall 4 Word 3</nciodm:CDISCSynonym>
                    <nciodm:CDISCDefinition>Auditory Verbal Learning Test Version A - List A, Recall 4, Word 3.</nciodm:CDISCDefinition>
                    <nciodm:PreferredTerm>ADNI AVLT - List A Recall 4 Word 3</nciodm:PreferredTerm>
                </EnumeratedItem>
                <EnumeratedItem CodedValue="AVL01-List A Recall 4 Word 4" nciodm:ExtCodeID="C101950">
                    <nciodm:CDISCSynonym>AVL01-List A Recall 4 Word 4</nciodm:CDISCSynonym>
                    <nciodm:CDISCDefinition>Auditory Verbal Learning Test Version A - List A, Recall 4, Word 4.</nciodm:CDISCDefinition>
                    <nciodm:PreferredTerm>ADNI AVLT - List A Recall 4 Word 4</nciodm:PreferredTerm>
                </EnumeratedItem>
                <EnumeratedItem CodedValue="AVL01-List A Recall 4 Word 5" nciodm:ExtCodeID="C101951">
                    <nciodm:CDISCSynonym>AVL01-List A Recall 4 Word 5</nciodm:CDISCSynonym>
                    <nciodm:CDISCDefinition>Auditory Verbal Learning Test Version A - List A, Recall 4, Word 5.</nciodm:CDISCDefinition>
                    <nciodm:PreferredTerm>ADNI AVLT - List A Recall 4 Word 5</nciodm:PreferredTerm>
                </EnumeratedItem>
                <EnumeratedItem CodedValue="AVL01-List A Recall 4 Word 6" nciodm:ExtCodeID="C101952">
                    <nciodm:CDISCSynonym>AVL01-List A Recall 4 Word 6</nciodm:CDISCSynonym>
                    <nciodm:CDISCDefinition>Auditory Verbal Learning Test Version A - List A, Recall 4, Word 6.</nciodm:CDISCDefinition>
                    <nciodm:PreferredTerm>ADNI AVLT - List A Recall 4 Word 6</nciodm:PreferredTerm>
                </EnumeratedItem>
                <EnumeratedItem CodedValue="AVL01-List A Recall 4 Word 7" nciodm:ExtCodeID="C101953">
                    <nciodm:CDISCSynonym>AVL01-List A Recall 4 Word 7</nciodm:CDISCSynonym>
                    <nciodm:CDISCDefinition>Auditory Verbal Learning Test Version A - List A, Recall 4, Word 7.</nciodm:CDISCDefinition>
                    <nciodm:PreferredTerm>ADNI AVLT - List A Recall 4 Word 7</nciodm:PreferredTerm>
                </EnumeratedItem>
                <EnumeratedItem CodedValue="AVL01-List A Recall 4 Word 8" nciodm:ExtCodeID="C101954">
                    <nciodm:CDISCSynonym>AVL01-List A Recall 4 Word 8</nciodm:CDISCSynonym>
                    <nciodm:CDISCDefinition>Auditory Verbal Learning Test Version A - List A, Recall 4, Word 8.</nciodm:CDISCDefinition>
                    <nciodm:PreferredTerm>ADNI AVLT - List A Recall 4 Word 8</nciodm:PreferredTerm>
                </EnumeratedItem>
                <EnumeratedItem CodedValue="AVL01-List A Recall 4 Word 9" nciodm:ExtCodeID="C101955">
                    <nciodm:CDISCSynonym>AVL01-List A Recall 4 Word 9</nciodm:CDISCSynonym>
                    <nciodm:CDISCDefinition>Auditory Verbal Learning Test Version A - List A, Recall 4, Word 9.</nciodm:CDISCDefinition>
                    <nciodm:PreferredTerm>ADNI AVLT - List A Recall 4 Word 9</nciodm:PreferredTerm>
                </EnumeratedItem>
                <EnumeratedItem CodedValue="AVL01-List A Recall 5 Total" nciodm:ExtCodeID="C101979">
                    <nciodm:CDISCSynonym>AVL01-List A Recall 5 Total</nciodm:CDISCSynonym>
                    <nciodm:CDISCDefinition>Auditory Verbal Learning Test Version A - The number of words recalled from List A, fifth attempt.</nciodm:CDISCDefinition>
                    <nciodm:PreferredTerm>ADNI AVLT - List A Recall 5 Total</nciodm:PreferredTerm>
                </EnumeratedItem>
                <EnumeratedItem CodedValue="AVL01-List A Recall 5 Word 1" nciodm:ExtCodeID="C101964">
                    <nciodm:CDISCSynonym>AVL01-List A Recall 5 Word 1</nciodm:CDISCSynonym>
                    <nciodm:CDISCDefinition>Auditory Verbal Learning Test Version A - List A, Recall 5, Word 1.</nciodm:CDISCDefinition>
                    <nciodm:PreferredTerm>ADNI AVLT - List A Recall 5 Word 1</nciodm:PreferredTerm>
                </EnumeratedItem>
                <EnumeratedItem CodedValue="AVL01-List A Recall 5 Word 10" nciodm:ExtCodeID="C101973">
                    <nciodm:CDISCSynonym>AVL01-List A Recall 5 Word 10</nciodm:CDISCSynonym>
                    <nciodm:CDISCDefinition>Auditory Verbal Learning Test Version A - List A, Recall 5, Word 10.</nciodm:CDISCDefinition>
                    <nciodm:PreferredTerm>ADNI AVLT - List A Recall 5 Word 10</nciodm:PreferredTerm>
                </EnumeratedItem>
                <EnumeratedItem CodedValue="AVL01-List A Recall 5 Word 11" nciodm:ExtCodeID="C101974">
                    <nciodm:CDISCSynonym>AVL01-List A Recall 5 Word 11</nciodm:CDISCSynonym>
                    <nciodm:CDISCDefinition>Auditory Verbal Learning Test Version A - List A, Recall 5, Word 11.</nciodm:CDISCDefinition>
                    <nciodm:PreferredTerm>ADNI AVLT - List A Recall 5 Word 11</nciodm:PreferredTerm>
                </EnumeratedItem>
                <EnumeratedItem CodedValue="AVL01-List A Recall 5 Word 12" nciodm:ExtCodeID="C101975">
                    <nciodm:CDISCSynonym>AVL01-List A Recall 5 Word 12</nciodm:CDISCSynonym>
                    <nciodm:CDISCDefinition>Auditory Verbal Learning Test Version A - List A, Recall 5, Word 12.</nciodm:CDISCDefinition>
                    <nciodm:PreferredTerm>ADNI AVLT - List A Recall 5 Word 12</nciodm:PreferredTerm>
                </EnumeratedItem>
                <EnumeratedItem CodedValue="AVL01-List A Recall 5 Word 13" nciodm:ExtCodeID="C101976">
                    <nciodm:CDISCSynonym>AVL01-List A Recall 5 Word 13</nciodm:CDISCSynonym>
                    <nciodm:CDISCDefinition>Auditory Verbal Learning Test Version A - List A, Recall 5, Word 13.</nciodm:CDISCDefinition>
                    <nciodm:PreferredTerm>ADNI AVLT - List A Recall 5 Word 13</nciodm:PreferredTerm>
                </EnumeratedItem>
                <EnumeratedItem CodedValue="AVL01-List A Recall 5 Word 14" nciodm:ExtCodeID="C101977">
                    <nciodm:CDISCSynonym>AVL01-List A Recall 5 Word 14</nciodm:CDISCSynonym>
                    <nciodm:CDISCDefinition>Auditory Verbal Learning Test Version A - List A, Recall 5, Word 14.</nciodm:CDISCDefinition>
                    <nciodm:PreferredTerm>ADNI AVLT - List A Recall 5 Word 14</nciodm:PreferredTerm>
                </EnumeratedItem>
                <EnumeratedItem CodedValue="AVL01-List A Recall 5 Word 15" nciodm:ExtCodeID="C101978">
                    <nciodm:CDISCSynonym>AVL01-List A Recall 5 Word 15</nciodm:CDISCSynonym>
                    <nciodm:CDISCDefinition>Auditory Verbal Learning Test Version A - List A, Recall 5, Word 15.</nciodm:CDISCDefinition>
                    <nciodm:PreferredTerm>ADNI AVLT - List A Recall 5 Word 15</nciodm:PreferredTerm>
                </EnumeratedItem>
                <EnumeratedItem CodedValue="AVL01-List A Recall 5 Word 2" nciodm:ExtCodeID="C101965">
                    <nciodm:CDISCSynonym>AVL01-List A Recall 5 Word 2</nciodm:CDISCSynonym>
                    <nciodm:CDISCDefinition>Auditory Verbal Learning Test Version A - List A, Recall 5, Word 2.</nciodm:CDISCDefinition>
                    <nciodm:PreferredTerm>ADNI AVLT - List A Recall 5 Word 2</nciodm:PreferredTerm>
                </EnumeratedItem>
                <EnumeratedItem CodedValue="AVL01-List A Recall 5 Word 3" nciodm:ExtCodeID="C101966">
                    <nciodm:CDISCSynonym>AVL01-List A Recall 5 Word 3</nciodm:CDISCSynonym>
                    <nciodm:CDISCDefinition>Auditory Verbal Learning Test Version A - List A, Recall 5, Word 3.</nciodm:CDISCDefinition>
                    <nciodm:PreferredTerm>ADNI AVLT - List A Recall 5 Word 3</nciodm:PreferredTerm>
                </EnumeratedItem>
                <EnumeratedItem CodedValue="AVL01-List A Recall 5 Word 4" nciodm:ExtCodeID="C101967">
                    <nciodm:CDISCSynonym>AVL01-List A Recall 5 Word 4</nciodm:CDISCSynonym>
                    <nciodm:CDISCDefinition>Auditory Verbal Learning Test Version A - List A, Recall 5, Word 4.</nciodm:CDISCDefinition>
                    <nciodm:PreferredTerm>ADNI AVLT - List A Recall 5 Word 4</nciodm:PreferredTerm>
                </EnumeratedItem>
                <EnumeratedItem CodedValue="AVL01-List A Recall 5 Word 5" nciodm:ExtCodeID="C101968">
                    <nciodm:CDISCSynonym>AVL01-List A Recall 5 Word 5</nciodm:CDISCSynonym>
                    <nciodm:CDISCDefinition>Auditory Verbal Learning Test Version A - List A, Recall 5, Word 5.</nciodm:CDISCDefinition>
                    <nciodm:PreferredTerm>ADNI AVLT - List A Recall 5 Word 5</nciodm:PreferredTerm>
                </EnumeratedItem>
                <EnumeratedItem CodedValue="AVL01-List A Recall 5 Word 6" nciodm:ExtCodeID="C101969">
                    <nciodm:CDISCSynonym>AVL01-List A Recall 5 Word 6</nciodm:CDISCSynonym>
                    <nciodm:CDISCDefinition>Auditory Verbal Learning Test Version A - List A, Recall 5, Word 6.</nciodm:CDISCDefinition>
                    <nciodm:PreferredTerm>ADNI AVLT - List A Recall 5 Word 6</nciodm:PreferredTerm>
                </EnumeratedItem>
                <EnumeratedItem CodedValue="AVL01-List A Recall 5 Word 7" nciodm:ExtCodeID="C101970">
                    <nciodm:CDISCSynonym>AVL01-List A Recall 5 Word 7</nciodm:CDISCSynonym>
                    <nciodm:CDISCDefinition>Auditory Verbal Learning Test Version A - List A, Recall 5, Word 7.</nciodm:CDISCDefinition>
                    <nciodm:PreferredTerm>ADNI AVLT - List A Recall 5 Word 7</nciodm:PreferredTerm>
                </EnumeratedItem>
                <EnumeratedItem CodedValue="AVL01-List A Recall 5 Word 8" nciodm:ExtCodeID="C101971">
                    <nciodm:CDISCSynonym>AVL01-List A Recall 5 Word 8</nciodm:CDISCSynonym>
                    <nciodm:CDISCDefinition>Auditory Verbal Learning Test Version A - List A, Recall 5, Word 8.</nciodm:CDISCDefinition>
                    <nciodm:PreferredTerm>ADNI AVLT - List A Recall 5 Word 8</nciodm:PreferredTerm>
                </EnumeratedItem>
                <EnumeratedItem CodedValue="AVL01-List A Recall 5 Word 9" nciodm:ExtCodeID="C101972">
                    <nciodm:CDISCSynonym>AVL01-List A Recall 5 Word 9</nciodm:CDISCSynonym>
                    <nciodm:CDISCDefinition>Auditory Verbal Learning Test Version A - List A, Recall 5, Word 9.</nciodm:CDISCDefinition>
                    <nciodm:PreferredTerm>ADNI AVLT - List A Recall 5 Word 9</nciodm:PreferredTerm>
                </EnumeratedItem>
                <EnumeratedItem CodedValue="AVL01-List A Recall 6 (After B) Total" nciodm:ExtCodeID="C101996">
                    <nciodm:CDISCSynonym>AVL01-List A Recall 6 (After B) Total</nciodm:CDISCSynonym>
                    <nciodm:CDISCDefinition>Auditory Verbal Learning Test Version A - The number of words recalled from List A, sixth attempt (after List B recall).</nciodm:CDISCDefinition>
                    <nciodm:PreferredTerm>ADNI AVLT - List A Recall 6 (After B) Total</nciodm:PreferredTerm>
                </EnumeratedItem>
                <EnumeratedItem CodedValue="AVL01-List A Recall 6 (After B) Word 1" nciodm:ExtCodeID="C101981">
                    <nciodm:CDISCSynonym>AVL01-List A Recall 6 (After B) Word 1</nciodm:CDISCSynonym>
                    <nciodm:CDISCDefinition>Auditory Verbal Learning Test Version A - List A, Recall 6 (after B Recall), Word 1.</nciodm:CDISCDefinition>
                    <nciodm:PreferredTerm>ADNI AVLT - List A Recall 6 (After B) Word 1</nciodm:PreferredTerm>
                </EnumeratedItem>
                <EnumeratedItem CodedValue="AVL01-List A Recall 6 (After B) Word 10" nciodm:ExtCodeID="C101990">
                    <nciodm:CDISCSynonym>AVL01-List A Recall 6 (After B) Word 10</nciodm:CDISCSynonym>
                    <nciodm:CDISCDefinition>Auditory Verbal Learning Test Version A - List A, Recall 6 (after B Recall), Word 10.</nciodm:CDISCDefinition>
                    <nciodm:PreferredTerm>ADNI AVLT - List A Recall 6 (After B) Word 10</nciodm:PreferredTerm>
                </EnumeratedItem>
                <EnumeratedItem CodedValue="AVL01-List A Recall 6 (After B) Word 11" nciodm:ExtCodeID="C101991">
                    <nciodm:CDISCSynonym>AVL01-List A Recall 6 (After B) Word 11</nciodm:CDISCSynonym>
                    <nciodm:CDISCDefinition>Auditory Verbal Learning Test Version A - List A, Recall 6 (after B Recall), Word 11.</nciodm:CDISCDefinition>
                    <nciodm:PreferredTerm>ADNI AVLT - List A Recall 6 (After B) Word 11</nciodm:PreferredTerm>
                </EnumeratedItem>
                <EnumeratedItem CodedValue="AVL01-List A Recall 6 (After B) Word 12" nciodm:ExtCodeID="C101992">
                    <nciodm:CDISCSynonym>AVL01-List A Recall 6 (After B) Word 12</nciodm:CDISCSynonym>
                    <nciodm:CDISCDefinition>Auditory Verbal Learning Test Version A - List A, Recall 6 (after B Recall), Word 12.</nciodm:CDISCDefinition>
                    <nciodm:PreferredTerm>ADNI AVLT - List A Recall 6 (After B) Word 12</nciodm:PreferredTerm>
                </EnumeratedItem>
                <EnumeratedItem CodedValue="AVL01-List A Recall 6 (After B) Word 13" nciodm:ExtCodeID="C101993">
                    <nciodm:CDISCSynonym>AVL01-List A Recall 6 (After B) Word 13</nciodm:CDISCSynonym>
                    <nciodm:CDISCDefinition>Auditory Verbal Learning Test Version A - List A, Recall 6 (after B Recall), Word 13.</nciodm:CDISCDefinition>
                    <nciodm:PreferredTerm>ADNI AVLT - List A Recall 6 (After B) Word 13</nciodm:PreferredTerm>
                </EnumeratedItem>
                <EnumeratedItem CodedValue="AVL01-List A Recall 6 (After B) Word 14" nciodm:ExtCodeID="C101994">
                    <nciodm:CDISCSynonym>AVL01-List A Recall 6 (After B) Word 14</nciodm:CDISCSynonym>
                    <nciodm:CDISCDefinition>Auditory Verbal Learning Test Version A - List A, Recall 6 (after B Recall), Word 14.</nciodm:CDISCDefinition>
                    <nciodm:PreferredTerm>ADNI AVLT - List A Recall 6 (After B) Word 14</nciodm:PreferredTerm>
                </EnumeratedItem>
                <EnumeratedItem CodedValue="AVL01-List A Recall 6 (After B) Word 15" nciodm:ExtCodeID="C101995">
                    <nciodm:CDISCSynonym>AVL01-List A Recall 6 (After B) Word 15</nciodm:CDISCSynonym>
                    <nciodm:CDISCDefinition>Auditory Verbal Learning Test Version A - List A, Recall 6 (after B Recall), Word 15.</nciodm:CDISCDefinition>
                    <nciodm:PreferredTerm>ADNI AVLT - List A Recall 6 (After B) Word 15</nciodm:PreferredTerm>
                </EnumeratedItem>
                <EnumeratedItem CodedValue="AVL01-List A Recall 6 (After B) Word 2" nciodm:ExtCodeID="C101982">
                    <nciodm:CDISCSynonym>AVL01-List A Recall 6 (After B) Word 2</nciodm:CDISCSynonym>
                    <nciodm:CDISCDefinition>Auditory Verbal Learning Test Version A - List A, Recall 6 (after B Recall), Word 2.</nciodm:CDISCDefinition>
                    <nciodm:PreferredTerm>ADNI AVLT - List A Recall 6 (After B) Word 2</nciodm:PreferredTerm>
                </EnumeratedItem>
                <EnumeratedItem CodedValue="AVL01-List A Recall 6 (After B) Word 3" nciodm:ExtCodeID="C101983">
                    <nciodm:CDISCSynonym>AVL01-List A Recall 6 (After B) Word 3</nciodm:CDISCSynonym>
                    <nciodm:CDISCDefinition>Auditory Verbal Learning Test Version A - List A, Recall 6 (after B Recall), Word 3.</nciodm:CDISCDefinition>
                    <nciodm:PreferredTerm>ADNI AVLT - List A Recall 6 (After B) Word 3</nciodm:PreferredTerm>
                </EnumeratedItem>
                <EnumeratedItem CodedValue="AVL01-List A Recall 6 (After B) Word 4" nciodm:ExtCodeID="C101984">
                    <nciodm:CDISCSynonym>AVL01-List A Recall 6 (After B) Word 4</nciodm:CDISCSynonym>
                    <nciodm:CDISCDefinition>Auditory Verbal Learning Test Version A - List A, Recall 6 (after B Recall), Word 4.</nciodm:CDISCDefinition>
                    <nciodm:PreferredTerm>ADNI AVLT - List A Recall 6 (After B) Word 4</nciodm:PreferredTerm>
                </EnumeratedItem>
                <EnumeratedItem CodedValue="AVL01-List A Recall 6 (After B) Word 5" nciodm:ExtCodeID="C101985">
                    <nciodm:CDISCSynonym>AVL01-List A Recall 6 (After B) Word 5</nciodm:CDISCSynonym>
                    <nciodm:CDISCDefinition>Auditory Verbal Learning Test Version A - List A, Recall 6 (after B Recall), Word 5.</nciodm:CDISCDefinition>
                    <nciodm:PreferredTerm>ADNI AVLT - List A Recall 6 (After B) Word 5</nciodm:PreferredTerm>
                </EnumeratedItem>
                <EnumeratedItem CodedValue="AVL01-List A Recall 6 (After B) Word 6" nciodm:ExtCodeID="C101986">
                    <nciodm:CDISCSynonym>AVL01-List A Recall 6 (After B) Word 6</nciodm:CDISCSynonym>
                    <nciodm:CDISCDefinition>Auditory Verbal Learning Test Version A - List A, Recall 6 (after B Recall), Word 6.</nciodm:CDISCDefinition>
                    <nciodm:PreferredTerm>ADNI AVLT - List A Recall 6 (After B) Word 6</nciodm:PreferredTerm>
                </EnumeratedItem>
                <EnumeratedItem CodedValue="AVL01-List A Recall 6 (After B) Word 7" nciodm:ExtCodeID="C101987">
                    <nciodm:CDISCSynonym>AVL01-List A Recall 6 (After B) Word 7</nciodm:CDISCSynonym>
                    <nciodm:CDISCDefinition>Auditory Verbal Learning Test Version A - List A, Recall 6 (after B Recall), Word 7.</nciodm:CDISCDefinition>
                    <nciodm:PreferredTerm>ADNI AVLT - List A Recall 6 (After B) Word 7</nciodm:PreferredTerm>
                </EnumeratedItem>
                <EnumeratedItem CodedValue="AVL01-List A Recall 6 (After B) Word 8" nciodm:ExtCodeID="C101988">
                    <nciodm:CDISCSynonym>AVL01-List A Recall 6 (After B) Word 8</nciodm:CDISCSynonym>
                    <nciodm:CDISCDefinition>Auditory Verbal Learning Test Version A - List A, Recall 6 (after B Recall), Word 8.</nciodm:CDISCDefinition>
                    <nciodm:PreferredTerm>ADNI AVLT - List A Recall 6 (After B) Word 8</nciodm:PreferredTerm>
                </EnumeratedItem>
                <EnumeratedItem CodedValue="AVL01-List A Recall 6 (After B) Word 9" nciodm:ExtCodeID="C101989">
                    <nciodm:CDISCSynonym>AVL01-List A Recall 6 (After B) Word 9</nciodm:CDISCSynonym>
                    <nciodm:CDISCDefinition>Auditory Verbal Learning Test Version A - List A, Recall 6 (after B Recall), Word 9.</nciodm:CDISCDefinition>
                    <nciodm:PreferredTerm>ADNI AVLT - List A Recall 6 (After B) Word 9</nciodm:PreferredTerm>
                </EnumeratedItem>
                <EnumeratedItem CodedValue="AVL01-List A Recognition Intrusions" nciodm:ExtCodeID="C102033">
                    <nciodm:CDISCSynonym>AVL01-List A Recognition Intrusions</nciodm:CDISCSynonym>
                    <nciodm:CDISCDefinition>Auditory Verbal Learning Test Version A - The number of intrusions on recognition test.</nciodm:CDISCDefinition>
                    <nciodm:PreferredTerm>ADNI AVLT - List A Recognition Intrusions</nciodm:PreferredTerm>
                </EnumeratedItem>
                <EnumeratedItem CodedValue="AVL01-List A Recognition Total" nciodm:ExtCodeID="C102032">
                    <nciodm:CDISCSynonym>AVL01-List A Recognition Total</nciodm:CDISCSynonym>
                    <nciodm:CDISCDefinition>Auditory Verbal Learning Test Version A - The number of words correct on recognition test.</nciodm:CDISCDefinition>
                    <nciodm:PreferredTerm>ADNI AVLT - List A Recognition Total</nciodm:PreferredTerm>
                </EnumeratedItem>
                <EnumeratedItem CodedValue="AVL01-List B Intrusions" nciodm:ExtCodeID="C102014">
                    <nciodm:CDISCSynonym>AVL01-List B Intrusions</nciodm:CDISCSynonym>
                    <nciodm:CDISCDefinition>Auditory Verbal Learning Test Version A - The number of intrusions while recalling List B.</nciodm:CDISCDefinition>
                    <nciodm:PreferredTerm>ADNI AVLT - List B Intrusions</nciodm:PreferredTerm>
                </EnumeratedItem>
                <EnumeratedItem CodedValue="AVL01-List B Recall Total" nciodm:ExtCodeID="C102013">
                    <nciodm:CDISCSynonym>AVL01-List B Recall Total</nciodm:CDISCSynonym>
                    <nciodm:CDISCDefinition>Auditory Verbal Learning Test Version A - The number of words recalled from List B.</nciodm:CDISCDefinition>
                    <nciodm:PreferredTerm>ADNI AVLT - List B Recall Total</nciodm:PreferredTerm>
                </EnumeratedItem>
                <EnumeratedItem CodedValue="AVL01-List B Recall Word 1" nciodm:ExtCodeID="C101998">
                    <nciodm:CDISCSynonym>AVL01-List B Recall Word 1</nciodm:CDISCSynonym>
                    <nciodm:CDISCDefinition>Auditory Verbal Learning Test Version A - List B, Word 1.</nciodm:CDISCDefinition>
                    <nciodm:PreferredTerm>ADNI AVLT - List B Recall Word 1</nciodm:PreferredTerm>
                </EnumeratedItem>
                <EnumeratedItem CodedValue="AVL01-List B Recall Word 10" nciodm:ExtCodeID="C102007">
                    <nciodm:CDISCSynonym>AVL01-List B Recall Word 10</nciodm:CDISCSynonym>
                    <nciodm:CDISCDefinition>Auditory Verbal Learning Test Version A - List B, Word 10.</nciodm:CDISCDefinition>
                    <nciodm:PreferredTerm>ADNI AVLT - List B Recall Word 10</nciodm:PreferredTerm>
                </EnumeratedItem>
                <EnumeratedItem CodedValue="AVL01-List B Recall Word 11" nciodm:ExtCodeID="C102008">
                    <nciodm:CDISCSynonym>AVL01-List B Recall Word 11</nciodm:CDISCSynonym>
                    <nciodm:CDISCDefinition>Auditory Verbal Learning Test Version A - List B, Word 11.</nciodm:CDISCDefinition>
                    <nciodm:PreferredTerm>ADNI AVLT - List B Recall Word 11</nciodm:PreferredTerm>
                </EnumeratedItem>
                <EnumeratedItem CodedValue="AVL01-List B Recall Word 12" nciodm:ExtCodeID="C102009">
                    <nciodm:CDISCSynonym>AVL01-List B Recall Word 12</nciodm:CDISCSynonym>
                    <nciodm:CDISCDefinition>Auditory Verbal Learning Test Version A - List B, Word 12.</nciodm:CDISCDefinition>
                    <nciodm:PreferredTerm>ADNI AVLT - List B Recall Word 12</nciodm:PreferredTerm>
                </EnumeratedItem>
                <EnumeratedItem CodedValue="AVL01-List B Recall Word 13" nciodm:ExtCodeID="C102010">
                    <nciodm:CDISCSynonym>AVL01-List B Recall Word 13</nciodm:CDISCSynonym>
                    <nciodm:CDISCDefinition>Auditory Verbal Learning Test Version A - List B, Word 13.</nciodm:CDISCDefinition>
                    <nciodm:PreferredTerm>ADNI AVLT - List B Recall Word 13</nciodm:PreferredTerm>
                </EnumeratedItem>
                <EnumeratedItem CodedValue="AVL01-List B Recall Word 14" nciodm:ExtCodeID="C102011">
                    <nciodm:CDISCSynonym>AVL01-List B Recall Word 14</nciodm:CDISCSynonym>
                    <nciodm:CDISCDefinition>Auditory Verbal Learning Test Version A - List B, Word 14.</nciodm:CDISCDefinition>
                    <nciodm:PreferredTerm>ADNI AVLT - List B Recall Word 14</nciodm:PreferredTerm>
                </EnumeratedItem>
                <EnumeratedItem CodedValue="AVL01-List B Recall Word 15" nciodm:ExtCodeID="C102012">
                    <nciodm:CDISCSynonym>AVL01-List B Recall Word 15</nciodm:CDISCSynonym>
                    <nciodm:CDISCDefinition>Auditory Verbal Learning Test Version A - List B, Word 15.</nciodm:CDISCDefinition>
                    <nciodm:PreferredTerm>ADNI AVLT - List B Recall Word 15</nciodm:PreferredTerm>
                </EnumeratedItem>
                <EnumeratedItem CodedValue="AVL01-List B Recall Word 2" nciodm:ExtCodeID="C101999">
                    <nciodm:CDISCSynonym>AVL01-List B Recall Word 2</nciodm:CDISCSynonym>
                    <nciodm:CDISCDefinition>Auditory Verbal Learning Test Version A - List B, Word 2.</nciodm:CDISCDefinition>
                    <nciodm:PreferredTerm>ADNI AVLT - List B Recall Word 2</nciodm:PreferredTerm>
                </EnumeratedItem>
                <EnumeratedItem CodedValue="AVL01-List B Recall Word 3" nciodm:ExtCodeID="C102000">
                    <nciodm:CDISCSynonym>AVL01-List B Recall Word 3</nciodm:CDISCSynonym>
                    <nciodm:CDISCDefinition>Auditory Verbal Learning Test Version A - List B, Word 3.</nciodm:CDISCDefinition>
                    <nciodm:PreferredTerm>ADNI AVLT - List B Recall Word 3</nciodm:PreferredTerm>
                </EnumeratedItem>
                <EnumeratedItem CodedValue="AVL01-List B Recall Word 4" nciodm:ExtCodeID="C102001">
                    <nciodm:CDISCSynonym>AVL01-List B Recall Word 4</nciodm:CDISCSynonym>
                    <nciodm:CDISCDefinition>Auditory Verbal Learning Test Version A - List B, Word 4.</nciodm:CDISCDefinition>
                    <nciodm:PreferredTerm>ADNI AVLT - List B Recall Word 4</nciodm:PreferredTerm>
                </EnumeratedItem>
                <EnumeratedItem CodedValue="AVL01-List B Recall Word 5" nciodm:ExtCodeID="C102002">
                    <nciodm:CDISCSynonym>AVL01-List B Recall Word 5</nciodm:CDISCSynonym>
                    <nciodm:CDISCDefinition>Auditory Verbal Learning Test Version A - List B, Word 5.</nciodm:CDISCDefinition>
                    <nciodm:PreferredTerm>ADNI AVLT - List B Recall Word 5</nciodm:PreferredTerm>
                </EnumeratedItem>
                <EnumeratedItem CodedValue="AVL01-List B Recall Word 6" nciodm:ExtCodeID="C102003">
                    <nciodm:CDISCSynonym>AVL01-List B Recall Word 6</nciodm:CDISCSynonym>
                    <nciodm:CDISCDefinition>Auditory Verbal Learning Test Version A - List B, Word 6.</nciodm:CDISCDefinition>
                    <nciodm:PreferredTerm>ADNI AVLT - List B Recall Word 6</nciodm:PreferredTerm>
                </EnumeratedItem>
                <EnumeratedItem CodedValue="AVL01-List B Recall Word 7" nciodm:ExtCodeID="C102004">
                    <nciodm:CDISCSynonym>AVL01-List B Recall Word 7</nciodm:CDISCSynonym>
                    <nciodm:CDISCDefinition>Auditory Verbal Learning Test Version A - List B, Word 7.</nciodm:CDISCDefinition>
                    <nciodm:PreferredTerm>ADNI AVLT - List B Recall Word 7</nciodm:PreferredTerm>
                </EnumeratedItem>
                <EnumeratedItem CodedValue="AVL01-List B Recall Word 8" nciodm:ExtCodeID="C102005">
                    <nciodm:CDISCSynonym>AVL01-List B Recall Word 8</nciodm:CDISCSynonym>
                    <nciodm:CDISCDefinition>Auditory Verbal Learning Test Version A - List B, Word 8.</nciodm:CDISCDefinition>
                    <nciodm:PreferredTerm>ADNI AVLT - List B Recall Word 8</nciodm:PreferredTerm>
                </EnumeratedItem>
                <EnumeratedItem CodedValue="AVL01-List B Recall Word 9" nciodm:ExtCodeID="C102006">
                    <nciodm:CDISCSynonym>AVL01-List B Recall Word 9</nciodm:CDISCSynonym>
                    <nciodm:CDISCDefinition>Auditory Verbal Learning Test Version A - List B, Word 9.</nciodm:CDISCDefinition>
                    <nciodm:PreferredTerm>ADNI AVLT - List B Recall Word 9</nciodm:PreferredTerm>
                </EnumeratedItem>
                <nciodm:CDISCSubmissionValue>AVLT TEST</nciodm:CDISCSubmissionValue>
                <nciodm:CDISCSynonym>ADNI Auditory Verbal Learning Functional Test Test Name</nciodm:CDISCSynonym>
                <nciodm:PreferredTerm>CDISC Functional Test ADNI AVLT Test Name Terminology</nciodm:PreferredTerm>
            </CodeList>
            
