<CodeList xmlns="http://www.cdisc.org/ns/odm/v1.3" xmlns:nciodm="http://ncicb.nci.nih.gov/xml/odm/EVS/CDISC" xmlns:xs="http://www.w3.org/2001/XMLSchema-instance" OID="CL.C119071.RPQ01TN" Name="Rivermead Post Concussion Symptoms Questionnaire Questionnaire Test Name" DataType="text" nciodm:ExtCodeID="C119071" nciodm:CodeListExtensible="No">
                <Description>
                    <TranslatedText xml:lang="en">Rivermead Post Concussion Symptoms Questionnaire test name.</TranslatedText>
                </Description>
                <EnumeratedItem CodedValue="RPQ01-Any Other Difficulties 1" nciodm:ExtCodeID="C119192">
                    <nciodm:CDISCSynonym>RPQ01-Any Other Difficulties 1</nciodm:CDISCSynonym>
                    <nciodm:CDISCDefinition>Rivermead Post Concussion Symptoms Questionnaire - Compared with before the accident, are you experiencing any other difficulties 1?</nciodm:CDISCDefinition>
                    <nciodm:PreferredTerm>RPQ - Any Other Difficulties 1 (number)</nciodm:PreferredTerm>
                </EnumeratedItem>
                <EnumeratedItem CodedValue="RPQ01-Any Other Difficulties 1 (Text)" nciodm:ExtCodeID="C119191">
                    <nciodm:CDISCSynonym>RPQ01-Any Other Difficulties 1 (Text)</nciodm:CDISCSynonym>
                    <nciodm:CDISCDefinition>Rivermead Post Concussion Symptoms Questionnaire - Compared with before the accident, are you experiencing any other difficulties 1? (Text).</nciodm:CDISCDefinition>
                    <nciodm:PreferredTerm>RPQ - Any Other Difficulties 1 (Text)</nciodm:PreferredTerm>
                </EnumeratedItem>
                <EnumeratedItem CodedValue="RPQ01-Any Other Difficulties 2" nciodm:ExtCodeID="C119194">
                    <nciodm:CDISCSynonym>RPQ01-Any Other Difficulties 2</nciodm:CDISCSynonym>
                    <nciodm:CDISCDefinition>Rivermead Post Concussion Symptoms Questionnaire - Compared with before the accident, are you experiencing any other difficulties 2?</nciodm:CDISCDefinition>
                    <nciodm:PreferredTerm>RPQ - Any Other Difficulties 2 (Number)</nciodm:PreferredTerm>
                </EnumeratedItem>
                <EnumeratedItem CodedValue="RPQ01-Any Other Difficulties 2 (Text)" nciodm:ExtCodeID="C119193">
                    <nciodm:CDISCSynonym>RPQ01-Any Other Difficulties 2 (Text)</nciodm:CDISCSynonym>
                    <nciodm:CDISCDefinition>Rivermead Post Concussion Symptoms Questionnaire - Compared with before the accident, are you experiencing any other difficulties 2? (Text).</nciodm:CDISCDefinition>
                    <nciodm:PreferredTerm>RPQ - Any Other Difficulties 2 (Text)</nciodm:PreferredTerm>
                </EnumeratedItem>
                <EnumeratedItem CodedValue="RPQ01-Being Irritable, Easily Angered" nciodm:ExtCodeID="C119181">
                    <nciodm:CDISCSynonym>RPQ01-Being Irritable, Easily Angered</nciodm:CDISCSynonym>
                    <nciodm:CDISCDefinition>Rivermead Post Concussion Symptoms Questionnaire - Compared with before the accident, do you now suffer from: Being irritable, easily angered.</nciodm:CDISCDefinition>
                    <nciodm:PreferredTerm>RPQ - Being Irritable, Easily Angered</nciodm:PreferredTerm>
                </EnumeratedItem>
                <EnumeratedItem CodedValue="RPQ01-Blurred Vision" nciodm:ExtCodeID="C119187">
                    <nciodm:CDISCSynonym>RPQ01-Blurred Vision</nciodm:CDISCSynonym>
                    <nciodm:CDISCDefinition>Rivermead Post Concussion Symptoms Questionnaire - Compared with before the accident, do you now suffer from: Blurred vision.</nciodm:CDISCDefinition>
                    <nciodm:PreferredTerm>RPQ - Blurred Vision</nciodm:PreferredTerm>
                </EnumeratedItem>
                <EnumeratedItem CodedValue="RPQ01-Double Vision" nciodm:ExtCodeID="C119189">
                    <nciodm:CDISCSynonym>RPQ01-Double Vision</nciodm:CDISCSynonym>
                    <nciodm:CDISCDefinition>Rivermead Post Concussion Symptoms Questionnaire - Compared with before the accident, do you now suffer from: Double vision.</nciodm:CDISCDefinition>
                    <nciodm:PreferredTerm>RPQ - Double Vision</nciodm:PreferredTerm>
                </EnumeratedItem>
                <EnumeratedItem CodedValue="RPQ01-Fatigue, Tiring More Easily" nciodm:ExtCodeID="C119180">
                    <nciodm:CDISCSynonym>RPQ01-Fatigue, Tiring More Easily</nciodm:CDISCSynonym>
                    <nciodm:CDISCDefinition>Rivermead Post Concussion Symptoms Questionnaire - Compared with before the accident, do you now suffer from: Fatigue, tiring more easily.</nciodm:CDISCDefinition>
                    <nciodm:PreferredTerm>RPQ - Fatigue, Tiring More Easily</nciodm:PreferredTerm>
                </EnumeratedItem>
                <EnumeratedItem CodedValue="RPQ01-Feeling Depressed or Tearful" nciodm:ExtCodeID="C119182">
                    <nciodm:CDISCSynonym>RPQ01-Feeling Depressed or Tearful</nciodm:CDISCSynonym>
                    <nciodm:CDISCDefinition>Rivermead Post Concussion Symptoms Questionnaire - Compared with before the accident, do you now suffer from: Feeling depressed or tearful.</nciodm:CDISCDefinition>
                    <nciodm:PreferredTerm>RPQ - Feeling Depressed or Tearful</nciodm:PreferredTerm>
                </EnumeratedItem>
                <EnumeratedItem CodedValue="RPQ01-Feeling Frustrated or Impatient" nciodm:ExtCodeID="C119183">
                    <nciodm:CDISCSynonym>RPQ01-Feeling Frustrated or Impatient</nciodm:CDISCSynonym>
                    <nciodm:CDISCDefinition>Rivermead Post Concussion Symptoms Questionnaire - Compared with before the accident, do you now suffer from: Feeling frustrated or impatient.</nciodm:CDISCDefinition>
                    <nciodm:PreferredTerm>RPQ - Feeling Frustrated or Impatient</nciodm:PreferredTerm>
                </EnumeratedItem>
                <EnumeratedItem CodedValue="RPQ01-Feelings of Dizziness" nciodm:ExtCodeID="C119176">
                    <nciodm:CDISCSynonym>RPQ01-Feelings of Dizziness</nciodm:CDISCSynonym>
                    <nciodm:CDISCDefinition>Rivermead Post Concussion Symptoms Questionnaire - Compared with before the accident, do you now suffer from: Feelings of dizziness.</nciodm:CDISCDefinition>
                    <nciodm:PreferredTerm>RPQ - Feelings of Dizziness</nciodm:PreferredTerm>
                </EnumeratedItem>
                <EnumeratedItem CodedValue="RPQ01-Forgetfulness, Poor Memory" nciodm:ExtCodeID="C119184">
                    <nciodm:CDISCSynonym>RPQ01-Forgetfulness, Poor Memory</nciodm:CDISCSynonym>
                    <nciodm:CDISCDefinition>Rivermead Post Concussion Symptoms Questionnaire - Compared with before the accident, do you now suffer from: Forgetfulness, poor memory.</nciodm:CDISCDefinition>
                    <nciodm:PreferredTerm>RPQ - Forgetfulness, Poor Memory</nciodm:PreferredTerm>
                </EnumeratedItem>
                <EnumeratedItem CodedValue="RPQ01-Headaches" nciodm:ExtCodeID="C119175">
                    <nciodm:CDISCSynonym>RPQ01-Headaches</nciodm:CDISCSynonym>
                    <nciodm:CDISCDefinition>Rivermead Post Concussion Symptoms Questionnaire - Compared with before the accident, do you now suffer from: Headaches.</nciodm:CDISCDefinition>
                    <nciodm:PreferredTerm>RPQ - Headaches</nciodm:PreferredTerm>
                </EnumeratedItem>
                <EnumeratedItem CodedValue="RPQ01-Light Sensitivity/Bright Light" nciodm:ExtCodeID="C119188">
                    <nciodm:CDISCSynonym>RPQ01-Light Sensitivity/Bright Light</nciodm:CDISCSynonym>
                    <nciodm:CDISCDefinition>Rivermead Post Concussion Symptoms Questionnaire - Compared with before the accident, do you now suffer from: Light sensitivity, easily upset by bright light.</nciodm:CDISCDefinition>
                    <nciodm:PreferredTerm>RPQ - Light Sensitivity</nciodm:PreferredTerm>
                </EnumeratedItem>
                <EnumeratedItem CodedValue="RPQ01-Nausea and/or Vomiting" nciodm:ExtCodeID="C119177">
                    <nciodm:CDISCSynonym>RPQ01-Nausea and/or Vomiting</nciodm:CDISCSynonym>
                    <nciodm:CDISCDefinition>Rivermead Post Concussion Symptoms Questionnaire - Compared with before the accident, do you now suffer from: Nausea and/or vomiting.</nciodm:CDISCDefinition>
                    <nciodm:PreferredTerm>RPQ - Nausea and/or Vomiting</nciodm:PreferredTerm>
                </EnumeratedItem>
                <EnumeratedItem CodedValue="RPQ01-Noise Sensitivity/Loud Noise" nciodm:ExtCodeID="C119178">
                    <nciodm:CDISCSynonym>RPQ01-Noise Sensitivity/Loud Noise</nciodm:CDISCSynonym>
                    <nciodm:CDISCDefinition>Rivermead Post Concussion Symptoms Questionnaire - Compared with before the accident, do you now suffer from: Noise sensitivity, easily upset by loud noise.</nciodm:CDISCDefinition>
                    <nciodm:PreferredTerm>RPQ - Noise Sensitivity</nciodm:PreferredTerm>
                </EnumeratedItem>
                <EnumeratedItem CodedValue="RPQ01-Poor Concentration" nciodm:ExtCodeID="C119185">
                    <nciodm:CDISCSynonym>RPQ01-Poor Concentration</nciodm:CDISCSynonym>
                    <nciodm:CDISCDefinition>Rivermead Post Concussion Symptoms Questionnaire - Compared with before the accident, do you now suffer from: Poor concentration.</nciodm:CDISCDefinition>
                    <nciodm:PreferredTerm>RPQ - Poor Concentration</nciodm:PreferredTerm>
                </EnumeratedItem>
                <EnumeratedItem CodedValue="RPQ01-Restlessness" nciodm:ExtCodeID="C119190">
                    <nciodm:CDISCSynonym>RPQ01-Restlessness</nciodm:CDISCSynonym>
                    <nciodm:CDISCDefinition>Rivermead Post Concussion Symptoms Questionnaire - Compared with before the accident, do you now suffer from: Restlessness.</nciodm:CDISCDefinition>
                    <nciodm:PreferredTerm>RPQ - Restlessness</nciodm:PreferredTerm>
                </EnumeratedItem>
                <EnumeratedItem CodedValue="RPQ01-Sleep Disturbance" nciodm:ExtCodeID="C119179">
                    <nciodm:CDISCSynonym>RPQ01-Sleep Disturbance</nciodm:CDISCSynonym>
                    <nciodm:CDISCDefinition>Rivermead Post Concussion Symptoms Questionnaire - Compared with before the accident, do you now suffer from: Sleep disturbance.</nciodm:CDISCDefinition>
                    <nciodm:PreferredTerm>RPQ - Sleep Disturbance</nciodm:PreferredTerm>
                </EnumeratedItem>
                <EnumeratedItem CodedValue="RPQ01-Taking Longer to Think" nciodm:ExtCodeID="C119186">
                    <nciodm:CDISCSynonym>RPQ01-Taking Longer to Think</nciodm:CDISCSynonym>
                    <nciodm:CDISCDefinition>Rivermead Post Concussion Symptoms Questionnaire - Compared with before the accident, do you now suffer from: Taking longer to think.</nciodm:CDISCDefinition>
                    <nciodm:PreferredTerm>RPQ - Taking Longer to Think</nciodm:PreferredTerm>
                </EnumeratedItem>
                <nciodm:CDISCSubmissionValue>RPQ01TN</nciodm:CDISCSubmissionValue>
                <nciodm:CDISCSynonym>Rivermead Post Concussion Symptoms Questionnaire Questionnaire Test Name</nciodm:CDISCSynonym>
                <nciodm:PreferredTerm>CDISC Questionnaire RPQ Test Name Terminology</nciodm:PreferredTerm>
            </CodeList>
            
