<CodeList xmlns="http://www.cdisc.org/ns/odm/v1.3" xmlns:nciodm="http://ncicb.nci.nih.gov/xml/odm/EVS/CDISC" xmlns:xs="http://www.w3.org/2001/XMLSchema-instance" OID="CL.C135699.RSSS01TN" Name="RAND Social Support Survey Instrument Questionnaire Test Name" DataType="text" nciodm:ExtCodeID="C135699" nciodm:CodeListExtensible="No">
                <Description>
                    <TranslatedText xml:lang="en">RAND Social Support Survey Instrument test name.</TranslatedText>
                </Description>
                <EnumeratedItem CodedValue="RSSS01-Advice You Really Want" nciodm:ExtCodeID="C136219">
                    <nciodm:CDISCSynonym>RSSS01-Advice You Really Want</nciodm:CDISCSynonym>
                    <nciodm:CDISCDefinition>RAND Social Support Survey Instrument - How often is each of the following kinds of support available to you if you need it: Someone whose advice you really want.</nciodm:CDISCDefinition>
                    <nciodm:PreferredTerm>RAND Social Support Survey - Advice You Really Want</nciodm:PreferredTerm>
                </EnumeratedItem>
                <EnumeratedItem CodedValue="RSSS01-Confide in/Talk to About Yourself" nciodm:ExtCodeID="C136218">
                    <nciodm:CDISCSynonym>RSSS01-Confide in/Talk to About Yourself</nciodm:CDISCSynonym>
                    <nciodm:CDISCDefinition>RAND Social Support Survey Instrument - How often is each of the following kinds of support available to you if you need it: Someone to confide in or talk to about yourself or your problems.</nciodm:CDISCDefinition>
                    <nciodm:PreferredTerm>RAND Social Support Survey - Confide in or Talk to About Yourself</nciodm:PreferredTerm>
                </EnumeratedItem>
                <EnumeratedItem CodedValue="RSSS01-Count on to Listen to You" nciodm:ExtCodeID="C136215">
                    <nciodm:CDISCSynonym>RSSS01-Count on to Listen to You</nciodm:CDISCSynonym>
                    <nciodm:CDISCDefinition>RAND Social Support Survey Instrument - How often is each of the following kinds of support available to you if you need it: Someone you can count on to listen to you when you need to talk.</nciodm:CDISCDefinition>
                    <nciodm:PreferredTerm>RAND Social Support Survey - Count on to Listen to You</nciodm:PreferredTerm>
                </EnumeratedItem>
                <EnumeratedItem CodedValue="RSSS01-Do Something Enjoyable With" nciodm:ExtCodeID="C136232">
                    <nciodm:CDISCSynonym>RSSS01-Do Something Enjoyable With</nciodm:CDISCSynonym>
                    <nciodm:CDISCDefinition>RAND Social Support Survey Instrument - How often is each of the following kinds of support available to you if you need it: Someone to do something enjoyable with.</nciodm:CDISCDefinition>
                    <nciodm:PreferredTerm>RAND Social Support Survey - Do Something Enjoyable With</nciodm:PreferredTerm>
                </EnumeratedItem>
                <EnumeratedItem CodedValue="RSSS01-Get Together With for Relaxation" nciodm:ExtCodeID="C136231">
                    <nciodm:CDISCSynonym>RSSS01-Get Together With for Relaxation</nciodm:CDISCSynonym>
                    <nciodm:CDISCDefinition>RAND Social Support Survey Instrument - How often is each of the following kinds of support available to you if you need it: Someone to get together with for relaxation.</nciodm:CDISCDefinition>
                    <nciodm:PreferredTerm>RAND Social Support Survey - Get Together With for Relaxation</nciodm:PreferredTerm>
                </EnumeratedItem>
                <EnumeratedItem CodedValue="RSSS01-Give You Advice About a Crisis" nciodm:ExtCodeID="C136217">
                    <nciodm:CDISCSynonym>RSSS01-Give You Advice About a Crisis</nciodm:CDISCSynonym>
                    <nciodm:CDISCDefinition>RAND Social Support Survey Instrument - How often is each of the following kinds of support available to you if you need it: Someone to give you good advice about a crisis.</nciodm:CDISCDefinition>
                    <nciodm:PreferredTerm>RAND Social Support Survey - Give You Advice About a Crisis</nciodm:PreferredTerm>
                </EnumeratedItem>
                <EnumeratedItem CodedValue="RSSS01-Give You Info to Help Understand" nciodm:ExtCodeID="C136216">
                    <nciodm:CDISCSynonym>RSSS01-Give You Info to Help Understand</nciodm:CDISCSynonym>
                    <nciodm:CDISCDefinition>RAND Social Support Survey Instrument - How often is each of the following kinds of support available to you if you need it: Someone to give you information to help you understand a situation.</nciodm:CDISCDefinition>
                    <nciodm:PreferredTerm>RAND Social Support Survey - Give You Info to Help Understand</nciodm:PreferredTerm>
                </EnumeratedItem>
                <EnumeratedItem CodedValue="RSSS01-Have a Good Time With" nciodm:ExtCodeID="C136230">
                    <nciodm:CDISCSynonym>RSSS01-Have a Good Time With</nciodm:CDISCSynonym>
                    <nciodm:CDISCDefinition>RAND Social Support Survey Instrument - How often is each of the following kinds of support available to you if you need it: Someone to have a good time with.</nciodm:CDISCDefinition>
                    <nciodm:PreferredTerm>RAND Social Support Survey - Have a Good Time With</nciodm:PreferredTerm>
                </EnumeratedItem>
                <EnumeratedItem CodedValue="RSSS01-Help If You Were Confined to Bed" nciodm:ExtCodeID="C136223">
                    <nciodm:CDISCSynonym>RSSS01-Help If You Were Confined to Bed</nciodm:CDISCSynonym>
                    <nciodm:CDISCDefinition>RAND Social Support Survey Instrument - How often is each of the following kinds of support available to you if you need it: Someone to help you if you were confined to bed.</nciodm:CDISCDefinition>
                    <nciodm:PreferredTerm>RAND Social Support Survey - Help If You Were Confined to Bed</nciodm:PreferredTerm>
                </EnumeratedItem>
                <EnumeratedItem CodedValue="RSSS01-Help With Daily Chores If Sick" nciodm:ExtCodeID="C136226">
                    <nciodm:CDISCSynonym>RSSS01-Help With Daily Chores If Sick</nciodm:CDISCSynonym>
                    <nciodm:CDISCDefinition>RAND Social Support Survey Instrument - How often is each of the following kinds of support available to you if you need it: Someone to help with daily chores if you were sick.</nciodm:CDISCDefinition>
                    <nciodm:PreferredTerm>RAND Social Support Survey - Help With Daily Chores If Sick</nciodm:PreferredTerm>
                </EnumeratedItem>
                <EnumeratedItem CodedValue="RSSS01-Help You Get Your Mind Off Things" nciodm:ExtCodeID="C136233">
                    <nciodm:CDISCSynonym>RSSS01-Help You Get Your Mind Off Things</nciodm:CDISCSynonym>
                    <nciodm:CDISCDefinition>RAND Social Support Survey Instrument - How often is each of the following kinds of support available to you if you need it: Someone to do things with to help you get your mind off things.</nciodm:CDISCDefinition>
                    <nciodm:PreferredTerm>RAND Social Support Survey - Help You Get Your Mind Off Things</nciodm:PreferredTerm>
                </EnumeratedItem>
                <EnumeratedItem CodedValue="RSSS01-Hugs You" nciodm:ExtCodeID="C136229">
                    <nciodm:CDISCSynonym>RSSS01-Hugs You</nciodm:CDISCSynonym>
                    <nciodm:CDISCDefinition>RAND Social Support Survey Instrument - How often is each of the following kinds of support available to you if you need it: Someone who hugs you.</nciodm:CDISCDefinition>
                    <nciodm:PreferredTerm>RAND Social Support Survey - Hugs You</nciodm:PreferredTerm>
                </EnumeratedItem>
                <EnumeratedItem CodedValue="RSSS01-Love and Make You Feel Wanted" nciodm:ExtCodeID="C136228">
                    <nciodm:CDISCSynonym>RSSS01-Love and Make You Feel Wanted</nciodm:CDISCSynonym>
                    <nciodm:CDISCDefinition>RAND Social Support Survey Instrument - How often is each of the following kinds of support available to you if you need it: Someone to love and make you feel wanted.</nciodm:CDISCDefinition>
                    <nciodm:PreferredTerm>RAND Social Support Survey - Love and Make You Feel Wanted</nciodm:PreferredTerm>
                </EnumeratedItem>
                <EnumeratedItem CodedValue="RSSS01-Prepare Your Meals If Unable" nciodm:ExtCodeID="C136225">
                    <nciodm:CDISCSynonym>RSSS01-Prepare Your Meals If Unable</nciodm:CDISCSynonym>
                    <nciodm:CDISCDefinition>RAND Social Support Survey Instrument - How often is each of the following kinds of support available to you if you need it: Someone to prepare your meals if you were unable to do it yourself.</nciodm:CDISCDefinition>
                    <nciodm:PreferredTerm>RAND Social Support Survey - Prepare Your Meals If Unable</nciodm:PreferredTerm>
                </EnumeratedItem>
                <EnumeratedItem CodedValue="RSSS01-Share Your Private Worries/Fears" nciodm:ExtCodeID="C136220">
                    <nciodm:CDISCSynonym>RSSS01-Share Your Private Worries/Fears</nciodm:CDISCSynonym>
                    <nciodm:CDISCDefinition>RAND Social Support Survey Instrument - How often is each of the following kinds of support available to you if you need it: Someone to share your most private worries and fears with.</nciodm:CDISCDefinition>
                    <nciodm:PreferredTerm>RAND Social Support Survey - Share Your Private Worries and Fears</nciodm:PreferredTerm>
                </EnumeratedItem>
                <EnumeratedItem CodedValue="RSSS01-Shows You Love and Affection" nciodm:ExtCodeID="C136227">
                    <nciodm:CDISCSynonym>RSSS01-Shows You Love and Affection</nciodm:CDISCSynonym>
                    <nciodm:CDISCDefinition>RAND Social Support Survey Instrument - How often is each of the following kinds of support available to you if you need it: Someone who shows you love and affection.</nciodm:CDISCDefinition>
                    <nciodm:PreferredTerm>RAND Social Support Survey - Shows You Love and Affection</nciodm:PreferredTerm>
                </EnumeratedItem>
                <EnumeratedItem CodedValue="RSSS01-Take You to the Doctor If Needed" nciodm:ExtCodeID="C136224">
                    <nciodm:CDISCSynonym>RSSS01-Take You to the Doctor If Needed</nciodm:CDISCSynonym>
                    <nciodm:CDISCDefinition>RAND Social Support Survey Instrument - How often is each of the following kinds of support available to you if you need it: Someone to take you to the doctor if you needed it.</nciodm:CDISCDefinition>
                    <nciodm:PreferredTerm>RAND Social Support Survey - Take You to the Doctor If Needed</nciodm:PreferredTerm>
                </EnumeratedItem>
                <EnumeratedItem CodedValue="RSSS01-Turn to Suggestions Personal Prob" nciodm:ExtCodeID="C136221">
                    <nciodm:CDISCSynonym>RSSS01-Turn to Suggestions Personal Prob</nciodm:CDISCSynonym>
                    <nciodm:CDISCDefinition>RAND Social Support Survey Instrument - How often is each of the following kinds of support available to you if you need it: Someone to turn to for suggestions about how to deal with a personal problem.</nciodm:CDISCDefinition>
                    <nciodm:PreferredTerm>RAND Social Support Survey - Suggestions to Deal With Personal Problem</nciodm:PreferredTerm>
                </EnumeratedItem>
                <EnumeratedItem CodedValue="RSSS01-Understands Your Problems" nciodm:ExtCodeID="C136222">
                    <nciodm:CDISCSynonym>RSSS01-Understands Your Problems</nciodm:CDISCSynonym>
                    <nciodm:CDISCDefinition>RAND Social Support Survey Instrument - How often is each of the following kinds of support available to you if you need it: Someone who understands your problems.</nciodm:CDISCDefinition>
                    <nciodm:PreferredTerm>RAND Social Support Survey - Understands Your Problems</nciodm:PreferredTerm>
                </EnumeratedItem>
                <nciodm:CDISCSubmissionValue>RSSS01TN</nciodm:CDISCSubmissionValue>
                <nciodm:CDISCSynonym>RAND Social Support Survey Instrument Questionnaire Test Name</nciodm:CDISCSynonym>
                <nciodm:PreferredTerm>CDISC Questionnaire RAND Social Support Survey Test Name Terminology</nciodm:PreferredTerm>
            </CodeList>
            
