<CodeList xmlns="http://www.cdisc.org/ns/odm/v1.3" xmlns:nciodm="http://ncicb.nci.nih.gov/xml/odm/EVS/CDISC" xmlns:xs="http://www.w3.org/2001/XMLSchema-instance" OID="CL.C128683.PKUWKG" Name="PK Units of Measure - Weight kg" DataType="text" nciodm:ExtCodeID="C128683" nciodm:CodeListExtensible="Yes">
                <Description>
                    <TranslatedText xml:lang="en">Units of measure for pharmacokinetic data and parameters normalized by weight in kilograms.</TranslatedText>
                </Description>
                <EnumeratedItem CodedValue="(L/day)/kg" nciodm:ExtCodeID="C73755">
                    <nciodm:CDISCSynonym>(L/day)/kg</nciodm:CDISCSynonym>
                    <nciodm:CDISCSynonym>(mL/day)/g</nciodm:CDISCSynonym>
                    <nciodm:CDISCSynonym>mL/g/day</nciodm:CDISCSynonym>
                    <nciodm:CDISCDefinition>Milliliters per gram per day or liters per day (flow rate), divided by kilograms (weight) or milliliters per day (flow rate), divided by grams (weight).</nciodm:CDISCDefinition>
                    <nciodm:PreferredTerm>Milliliter per Gram per Day</nciodm:PreferredTerm>
                </EnumeratedItem>
                <EnumeratedItem CodedValue="(L/h)/kg" nciodm:ExtCodeID="C73756">
                    <nciodm:CDISCSynonym>(L/h)/kg</nciodm:CDISCSynonym>
                    <nciodm:CDISCSynonym>(mL/h)/g</nciodm:CDISCSynonym>
                    <nciodm:CDISCSynonym>mL/g/h</nciodm:CDISCSynonym>
                    <nciodm:CDISCDefinition>Milliliters per gram per hour or liters per hour (flow rate), divided by kilograms (weight) or milliliters per hour (flow rate), divided by grams (weight).</nciodm:CDISCDefinition>
                    <nciodm:PreferredTerm>Milliliter per Gram per Hour</nciodm:PreferredTerm>
                </EnumeratedItem>
                <EnumeratedItem CodedValue="(L/min)/kg" nciodm:ExtCodeID="C73757">
                    <nciodm:CDISCSynonym>(L/min)/kg</nciodm:CDISCSynonym>
                    <nciodm:CDISCSynonym>(mL/min)/g</nciodm:CDISCSynonym>
                    <nciodm:CDISCSynonym>mL/g/min</nciodm:CDISCSynonym>
                    <nciodm:CDISCDefinition>Milliliters per gram per minute or liters per minute (flow rate), divided by kilograms (weight) or milliliters per minute (flow rate), divided by grams (weight).</nciodm:CDISCDefinition>
                    <nciodm:PreferredTerm>Milliliter per Gram per Minute</nciodm:PreferredTerm>
                </EnumeratedItem>
                <EnumeratedItem CodedValue="(mL/day)/kg" nciodm:ExtCodeID="C73758">
                    <nciodm:CDISCSynonym>(mL/day)/kg</nciodm:CDISCSynonym>
                    <nciodm:CDISCSynonym>mL/kg/day</nciodm:CDISCSynonym>
                    <nciodm:CDISCDefinition>Milliliters per kilogram per day or milliliters per day (flow rate), divided by kilograms (weight).</nciodm:CDISCDefinition>
                    <nciodm:PreferredTerm>Milliliter per Kilogram per Day</nciodm:PreferredTerm>
                </EnumeratedItem>
                <EnumeratedItem CodedValue="(mL/h)/kg" nciodm:ExtCodeID="C73759">
                    <nciodm:CDISCSynonym>(mL/h)/kg</nciodm:CDISCSynonym>
                    <nciodm:CDISCSynonym>mL/kg/h</nciodm:CDISCSynonym>
                    <nciodm:CDISCDefinition>Milliliters per kilogram per hour or milliliters per hour (flow rate), divided by kilograms (weight).</nciodm:CDISCDefinition>
                    <nciodm:PreferredTerm>Milliliter per Kilogram per Hour</nciodm:PreferredTerm>
                </EnumeratedItem>
                <EnumeratedItem CodedValue="(mL/min)/kg" nciodm:ExtCodeID="C73760">
                    <nciodm:CDISCSynonym>(mL/min)/kg</nciodm:CDISCSynonym>
                    <nciodm:CDISCSynonym>mL/kg/min</nciodm:CDISCSynonym>
                    <nciodm:CDISCDefinition>Milliliters per kilogram per minute or milliliters per minute (flow rate), divided by kilograms (weight).</nciodm:CDISCDefinition>
                    <nciodm:PreferredTerm>Milliliter per Kilogram per Minute</nciodm:PreferredTerm>
                </EnumeratedItem>
                <EnumeratedItem CodedValue="day*g/mL/kg" nciodm:ExtCodeID="C112247">
                    <nciodm:CDISCSynonym>day*g/mL/kg</nciodm:CDISCSynonym>
                    <nciodm:CDISCSynonym>day*mg/mL/g</nciodm:CDISCSynonym>
                    <nciodm:CDISCSynonym>day*ng/mL/ug</nciodm:CDISCSynonym>
                    <nciodm:CDISCSynonym>day*ug/mL/mg</nciodm:CDISCSynonym>
                    <nciodm:CDISCDefinition>Days times grams per milliliter (area under the curve), divided by kilograms (weight); or days times milligrams per milliliter (area under the curve), divided by grams (weight); or days times micrograms per milliliter (area under the curve), divided by milligrams (dose); or days times nanograms per milliliter (area under the curve), divided by micrograms (dose).</nciodm:CDISCDefinition>
                    <nciodm:PreferredTerm>Day Times Gram Per Milliliter Per Kilogram</nciodm:PreferredTerm>
                </EnumeratedItem>
                <EnumeratedItem CodedValue="day*mg/mL/kg" nciodm:ExtCodeID="C112248">
                    <nciodm:CDISCSynonym>day*mg/mL/kg</nciodm:CDISCSynonym>
                    <nciodm:CDISCSynonym>day*ug/mL/g</nciodm:CDISCSynonym>
                    <nciodm:CDISCDefinition>Days times milligrams per milliliter (area under the curve), divided by kilograms (weight) or days times micrograms per milliliter (area under the curve), divided by grams (weight).</nciodm:CDISCDefinition>
                    <nciodm:PreferredTerm>Day Times Microgram Per Milliliter Per Gram</nciodm:PreferredTerm>
                </EnumeratedItem>
                <EnumeratedItem CodedValue="day*mmol/L/kg" nciodm:ExtCodeID="C112250">
                    <nciodm:CDISCSynonym>day*mmol/L/kg</nciodm:CDISCSynonym>
                    <nciodm:CDISCSynonym>day*umol/L/g</nciodm:CDISCSynonym>
                    <nciodm:CDISCDefinition>Days times millimoles per liter (area under the curve), divided by kilograms (weight) or days times micromoles per liter (area under the curve), divided by grams (weight).</nciodm:CDISCDefinition>
                    <nciodm:PreferredTerm>Day Times Micromole Per Liter Per Gram</nciodm:PreferredTerm>
                </EnumeratedItem>
                <EnumeratedItem CodedValue="day*mol/L/kg" nciodm:ExtCodeID="C112254">
                    <nciodm:CDISCSynonym>day*mmol/L/g</nciodm:CDISCSynonym>
                    <nciodm:CDISCSynonym>day*mol/L/kg</nciodm:CDISCSynonym>
                    <nciodm:CDISCDefinition>Days times moles per liter (area under the curve), divided by kilograms (weight) or days times millimoles per liter (area under the curve), divided by grams (weight).</nciodm:CDISCDefinition>
                    <nciodm:PreferredTerm>Day Times Millimole Per Liter Per Gram</nciodm:PreferredTerm>
                </EnumeratedItem>
                <EnumeratedItem CodedValue="day*ng/mL/kg" nciodm:ExtCodeID="C112259">
                    <nciodm:CDISCSynonym>day*ng/mL/kg</nciodm:CDISCSynonym>
                    <nciodm:CDISCSynonym>day*pg/mL/g</nciodm:CDISCSynonym>
                    <nciodm:CDISCDefinition>Days times nanograms per milliliter (area under the curve), divided by kilograms (weight) or days times picograms per milliliter (area under the curve), divided by grams (weight).</nciodm:CDISCDefinition>
                    <nciodm:PreferredTerm>Day Times Nanogram Per Milliliter Per Kilogram</nciodm:PreferredTerm>
                </EnumeratedItem>
                <EnumeratedItem CodedValue="day*nmol/L/kg" nciodm:ExtCodeID="C112261">
                    <nciodm:CDISCSynonym>day*nmol/L/kg</nciodm:CDISCSynonym>
                    <nciodm:CDISCSynonym>day*pmol/L/g</nciodm:CDISCSynonym>
                    <nciodm:CDISCDefinition>Days times nanomoles per liter (area under the curve), divided by kilograms (weight) or days times picomoles per liter (area under the curve), divided by grams (weight).</nciodm:CDISCDefinition>
                    <nciodm:PreferredTerm>Day Times Nanomole Per Liter Per Kilogram</nciodm:PreferredTerm>
                </EnumeratedItem>
                <EnumeratedItem CodedValue="day*pg/mL/kg" nciodm:ExtCodeID="C112244">
                    <nciodm:CDISCSynonym>day*fg/mL/g</nciodm:CDISCSynonym>
                    <nciodm:CDISCSynonym>day*pg/mL/kg</nciodm:CDISCSynonym>
                    <nciodm:CDISCDefinition>Days times picograms per milliliter (area under the curve), divided by kilograms (weight) or days times femtograms per milliliter (area under the curve), divided by grams (weight).</nciodm:CDISCDefinition>
                    <nciodm:PreferredTerm>Day Times Femtogram Per Milliliter Per Gram</nciodm:PreferredTerm>
                </EnumeratedItem>
                <EnumeratedItem CodedValue="day*pmol/L/kg" nciodm:ExtCodeID="C112265">
                    <nciodm:CDISCDefinition>Days times picomoles per liter (area under the curve), divided by kilograms (weight).</nciodm:CDISCDefinition>
                    <nciodm:PreferredTerm>Day Times Picomole Per Liter Per Kilogram</nciodm:PreferredTerm>
                </EnumeratedItem>
                <EnumeratedItem CodedValue="day*ug/mL/kg" nciodm:ExtCodeID="C112249">
                    <nciodm:CDISCSynonym>day*ng/mL/g</nciodm:CDISCSynonym>
                    <nciodm:CDISCSynonym>day*ug/mL/kg</nciodm:CDISCSynonym>
                    <nciodm:CDISCDefinition>Days times micrograms per milliliter (area under the curve), divided by kilograms (weight) or days times nanograms per milliliter (area under the curve), divided by grams (weight).</nciodm:CDISCDefinition>
                    <nciodm:PreferredTerm>Day Times Microgram Per Milliliter Per Kilogram</nciodm:PreferredTerm>
                </EnumeratedItem>
                <EnumeratedItem CodedValue="day*umol/L/kg" nciodm:ExtCodeID="C112251">
                    <nciodm:CDISCSynonym>day*nmol/L/g</nciodm:CDISCSynonym>
                    <nciodm:CDISCSynonym>day*umol/L/kg</nciodm:CDISCSynonym>
                    <nciodm:CDISCDefinition>Days times micromoles per liter (area under the curve), divided by kilograms (weight) or days times nanomoles per liter (area under the curve), divided by grams (weight).</nciodm:CDISCDefinition>
                    <nciodm:PreferredTerm>Day Times Micromole Per Liter Per Kilogram</nciodm:PreferredTerm>
                </EnumeratedItem>
                <EnumeratedItem CodedValue="fg/mL/kg" nciodm:ExtCodeID="C119348">
                    <nciodm:CDISCDefinition>Femtograms per milliliter (concentration), divided by kilograms (weight).</nciodm:CDISCDefinition>
                    <nciodm:PreferredTerm>Femtogram per Milliliter per Kilogram</nciodm:PreferredTerm>
                </EnumeratedItem>
                <EnumeratedItem CodedValue="g/mL/kg" nciodm:ExtCodeID="C85710">
                    <nciodm:CDISCSynonym>g/mL/kg</nciodm:CDISCSynonym>
                    <nciodm:CDISCSynonym>mg/mL/g</nciodm:CDISCSynonym>
                    <nciodm:CDISCSynonym>ng/mL/ug</nciodm:CDISCSynonym>
                    <nciodm:CDISCSynonym>ug/mL/mg</nciodm:CDISCSynonym>
                    <nciodm:CDISCDefinition>Grams per milliliter (concentration), divided by kilograms (weight) or milligrams per milliliter (concentration), divided by grams (weight) or micrograms per milliliter (concentration), divided by milligrams (dose) or nanograms per milliliter (concentration), divided by micrograms (dose).</nciodm:CDISCDefinition>
                    <nciodm:PreferredTerm>Milligram per Liter per Milligram</nciodm:PreferredTerm>
                </EnumeratedItem>
                <EnumeratedItem CodedValue="h*g/mL/kg" nciodm:ExtCodeID="C85617">
                    <nciodm:CDISCSynonym>h*g/mL/kg</nciodm:CDISCSynonym>
                    <nciodm:CDISCSynonym>h*mg/mL/g</nciodm:CDISCSynonym>
                    <nciodm:CDISCSynonym>h*ug/mL/mg</nciodm:CDISCSynonym>
                    <nciodm:CDISCDefinition>Hours times grams per milliliter (area under the curve), divided by kilograms (weight) or hours times milligrams per milliliter (area under the curve), divided by grams (weight) or hours times micrograms per milliliter (area under the curve), divided by milligrams (dose).</nciodm:CDISCDefinition>
                    <nciodm:PreferredTerm>Hour Times Microgram per Milliliter per Milligram</nciodm:PreferredTerm>
                </EnumeratedItem>
                <EnumeratedItem CodedValue="h*mg/mL/kg" nciodm:ExtCodeID="C85627">
                    <nciodm:CDISCSynonym>h*mg/mL/kg</nciodm:CDISCSynonym>
                    <nciodm:CDISCSynonym>h*ng/mL/mg</nciodm:CDISCSynonym>
                    <nciodm:CDISCSynonym>h*ug/mL/g</nciodm:CDISCSynonym>
                    <nciodm:CDISCDefinition>Hours times milligrams per milliliter (area under the curve), divided by kilograms (weight) or hours times micrograms per milliliter (area under the curve), divided by grams (weight) or hours times nanograms per milliliter (area under the curve), divided by milligrams (dose).</nciodm:CDISCDefinition>
                    <nciodm:PreferredTerm>Hour Times Nanogram per Milliliter per Milligram</nciodm:PreferredTerm>
                </EnumeratedItem>
                <EnumeratedItem CodedValue="h*mmol/L/kg" nciodm:ExtCodeID="C112307">
                    <nciodm:CDISCSynonym>h*mmol/L/kg</nciodm:CDISCSynonym>
                    <nciodm:CDISCSynonym>h*nmol/L/mg</nciodm:CDISCSynonym>
                    <nciodm:CDISCSynonym>h*pmol/L/ug</nciodm:CDISCSynonym>
                    <nciodm:CDISCSynonym>h*umol/L/g</nciodm:CDISCSynonym>
                    <nciodm:CDISCDefinition>Hours times millimoles per liter (area under the curve), divided by kilograms (weight); or hours times micromoles per liter (area under the curve), divided by grams (weight); or hours times nanomoles per liter (area under the curve), divided by milligrams (dose); or hours times picomoles per liter (area under the curve), divided by micrograms (dose).</nciodm:CDISCDefinition>
                    <nciodm:PreferredTerm>Hour Times Millimole Per Liter Per Kilogram</nciodm:PreferredTerm>
                </EnumeratedItem>
                <EnumeratedItem CodedValue="h*mol/L/kg" nciodm:ExtCodeID="C106530">
                    <nciodm:CDISCSynonym>h*mmol/L/g</nciodm:CDISCSynonym>
                    <nciodm:CDISCSynonym>h*mol/L/kg</nciodm:CDISCSynonym>
                    <nciodm:CDISCDefinition>Hours times moles per liter (area under the curve), divided by kilograms (weight) or hours times millimoles per liter (area under the curve), divided by grams (weight).</nciodm:CDISCDefinition>
                    <nciodm:PreferredTerm>Hour times Millimole Per Liter Per Gram</nciodm:PreferredTerm>
                </EnumeratedItem>
                <EnumeratedItem CodedValue="h*ng/mL/kg" nciodm:ExtCodeID="C85626">
                    <nciodm:CDISCSynonym>h*ng/mL/kg</nciodm:CDISCSynonym>
                    <nciodm:CDISCSynonym>h*pg/mL/g</nciodm:CDISCSynonym>
                    <nciodm:CDISCDefinition>Hours times nanograms per milliliter (area under the curve), divided by kilograms (weight) or hours times picograms per milliliter (area under the curve), divided by grams (weight).</nciodm:CDISCDefinition>
                    <nciodm:PreferredTerm>Hour Times Nanogram per Milliliter per Kilogram</nciodm:PreferredTerm>
                </EnumeratedItem>
                <EnumeratedItem CodedValue="h*nmol/L/kg" nciodm:ExtCodeID="C106532">
                    <nciodm:CDISCSynonym>h*nmol/L/kg</nciodm:CDISCSynonym>
                    <nciodm:CDISCSynonym>h*pmol/L/g</nciodm:CDISCSynonym>
                    <nciodm:CDISCDefinition>Hours times nanomoles per liter (area under the curve), divided by kilograms (weight) or hours times picomoles per liter (area under the curve), divided by grams (weight).</nciodm:CDISCDefinition>
                    <nciodm:PreferredTerm>Hour times Picomole Per Liter Per Gram</nciodm:PreferredTerm>
                </EnumeratedItem>
                <EnumeratedItem CodedValue="h*pg/mL/kg" nciodm:ExtCodeID="C85636">
                    <nciodm:CDISCSynonym>h*fg/mL/g</nciodm:CDISCSynonym>
                    <nciodm:CDISCSynonym>h*pg/mL/kg</nciodm:CDISCSynonym>
                    <nciodm:CDISCDefinition>Hours times picograms per milliliter (area under the curve), divided by kilograms (weight) or hours times femtograms per milliliter (area under the curve), divided by grams (weight).</nciodm:CDISCDefinition>
                    <nciodm:PreferredTerm>Hour Times Picogram per Milliliter per Kilogram</nciodm:PreferredTerm>
                </EnumeratedItem>
                <EnumeratedItem CodedValue="h*pmol/L/kg" nciodm:ExtCodeID="C112311">
                    <nciodm:CDISCDefinition>Hours times picomoles per liter (area under the curve), divided by kilograms (weight).</nciodm:CDISCDefinition>
                    <nciodm:PreferredTerm>Hour Times Picomole Per Liter Per Kilogram</nciodm:PreferredTerm>
                </EnumeratedItem>
                <EnumeratedItem CodedValue="h*ug/mL/kg" nciodm:ExtCodeID="C85625">
                    <nciodm:CDISCSynonym>h*ng/mL/g</nciodm:CDISCSynonym>
                    <nciodm:CDISCSynonym>h*pg/mL/mg</nciodm:CDISCSynonym>
                    <nciodm:CDISCSynonym>h*ug/mL/kg</nciodm:CDISCSynonym>
                    <nciodm:CDISCDefinition>Hours times micrograms per milliliter (area under the curve), divided by kilograms (weight) or hours times nanograms per milliliter (area under the curve), divided by grams (weight) or hours times picograms per milliliter (area under the curve), divided by milligrams (dose).</nciodm:CDISCDefinition>
                    <nciodm:PreferredTerm>Hour Times Nanogram per Milliliter per Gram</nciodm:PreferredTerm>
                </EnumeratedItem>
                <EnumeratedItem CodedValue="h*umol/L/kg" nciodm:ExtCodeID="C112304">
                    <nciodm:CDISCSynonym>h*nmol/L/g</nciodm:CDISCSynonym>
                    <nciodm:CDISCSynonym>h*umol/L/kg</nciodm:CDISCSynonym>
                    <nciodm:CDISCDefinition>Hours times micromoles per liter (area under the curve), divided by kilograms (weight) or hours times nanomoles per liter (area under the curve), divided by grams (weight).</nciodm:CDISCDefinition>
                    <nciodm:PreferredTerm>Hour Times Micromole Per Liter Per Kilogram</nciodm:PreferredTerm>
                </EnumeratedItem>
                <EnumeratedItem CodedValue="IU/mL/kg" nciodm:ExtCodeID="C119378">
                    <nciodm:CDISCSynonym>IU/mL/kg</nciodm:CDISCSynonym>
                    <nciodm:CDISCSynonym>mIU/mL/g</nciodm:CDISCSynonym>
                    <nciodm:CDISCSynonym>uIU/mL/mg</nciodm:CDISCSynonym>
                    <nciodm:CDISCDefinition>International units per milliliter (concentration), divided by kilograms (weight) or milli-international units per milliliter (concentration), divided by grams (weight) or micro-international units per milliliter (concentration), divided by milligrams (dose).</nciodm:CDISCDefinition>
                    <nciodm:PreferredTerm>International Unit per Milliliter per Kilogram</nciodm:PreferredTerm>
                </EnumeratedItem>
                <EnumeratedItem CodedValue="L/kg" nciodm:ExtCodeID="C73725">
                    <nciodm:CDISCSynonym>L/kg</nciodm:CDISCSynonym>
                    <nciodm:CDISCSynonym>mL/g</nciodm:CDISCSynonym>
                    <nciodm:CDISCDefinition>Liters (volume) divided by kilograms (weight) or milliliters (volume), divided by grams (weight).</nciodm:CDISCDefinition>
                    <nciodm:PreferredTerm>Liter per Kilogram</nciodm:PreferredTerm>
                </EnumeratedItem>
                <EnumeratedItem CodedValue="mg/mL/kg" nciodm:ExtCodeID="C85747">
                    <nciodm:CDISCSynonym>mg/mL/kg</nciodm:CDISCSynonym>
                    <nciodm:CDISCSynonym>ng/mL/mg</nciodm:CDISCSynonym>
                    <nciodm:CDISCSynonym>pg/mL/ug</nciodm:CDISCSynonym>
                    <nciodm:CDISCSynonym>ug/mL/g</nciodm:CDISCSynonym>
                    <nciodm:CDISCDefinition>Milligrams per milliliter (concentration), divided by kilograms (weight) or micrograms per milliliter (concentration), divided by grams (weight) or nanograms per milliliter (concentration), divided by milligrams (dose) or picograms per milliliter (concentration), divided by micrograms (dose).</nciodm:CDISCDefinition>
                    <nciodm:PreferredTerm>Nanogram per Milliliter per Milligram</nciodm:PreferredTerm>
                </EnumeratedItem>
                <EnumeratedItem CodedValue="min*g/mL/kg" nciodm:ExtCodeID="C112337">
                    <nciodm:CDISCSynonym>min*g/mL/kg</nciodm:CDISCSynonym>
                    <nciodm:CDISCSynonym>min*mg/mL/g</nciodm:CDISCSynonym>
                    <nciodm:CDISCDefinition>Minutes times grams per milliliter (area under the curve), divided by kilograms (weight) or minutes times milligrams per milliliter (area under the curve), divided by grams (weight).</nciodm:CDISCDefinition>
                    <nciodm:PreferredTerm>Minute Times Gram Per Milliliter Per Kilogram</nciodm:PreferredTerm>
                </EnumeratedItem>
                <EnumeratedItem CodedValue="min*mg/mL/kg" nciodm:ExtCodeID="C112338">
                    <nciodm:CDISCSynonym>min*mg/mL/kg</nciodm:CDISCSynonym>
                    <nciodm:CDISCSynonym>min*ug/mL/g</nciodm:CDISCSynonym>
                    <nciodm:CDISCDefinition>Minutes times milligrams per milliliter (area under the curve), divided by kilograms (weight) or minutes times micrograms per milliliter (area under the curve), divided by grams (weight).</nciodm:CDISCDefinition>
                    <nciodm:PreferredTerm>Minute Times Microgram Per Milliliter Per Gram</nciodm:PreferredTerm>
                </EnumeratedItem>
                <EnumeratedItem CodedValue="min*mmol/L/kg" nciodm:ExtCodeID="C112340">
                    <nciodm:CDISCSynonym>min*mmol/L/kg</nciodm:CDISCSynonym>
                    <nciodm:CDISCSynonym>min*umol/L/g</nciodm:CDISCSynonym>
                    <nciodm:CDISCDefinition>Minutes times millimoles per liter (area under the curve), divided by kilograms (weight) or minutes times micromoles per liter (area under the curve), divided by grams (weight).</nciodm:CDISCDefinition>
                    <nciodm:PreferredTerm>Minute Times Micromole Per Liter Per Gram</nciodm:PreferredTerm>
                </EnumeratedItem>
                <EnumeratedItem CodedValue="min*mol/L/kg" nciodm:ExtCodeID="C112344">
                    <nciodm:CDISCSynonym>min*mmol/L/g</nciodm:CDISCSynonym>
                    <nciodm:CDISCSynonym>min*mol/L/kg</nciodm:CDISCSynonym>
                    <nciodm:CDISCDefinition>Minutes times moles per liter (area under the curve), divided by kilograms (weight) or minutes times millimoles per liter (area under the curve), divided by grams (weight).</nciodm:CDISCDefinition>
                    <nciodm:PreferredTerm>Minute Times Millimole Per Liter Per Gram</nciodm:PreferredTerm>
                </EnumeratedItem>
                <EnumeratedItem CodedValue="min*ng/mL/kg" nciodm:ExtCodeID="C112349">
                    <nciodm:CDISCSynonym>min*ng/mL/kg</nciodm:CDISCSynonym>
                    <nciodm:CDISCSynonym>min*pg/mL/g</nciodm:CDISCSynonym>
                    <nciodm:CDISCDefinition>Minutes times nanograms per milliliter (area under the curve), divided by kilograms (weight) or minutes times picograms per milliliter (area under the curve), divided by grams (weight).</nciodm:CDISCDefinition>
                    <nciodm:PreferredTerm>Minute Times Nanogram Per Milliliter Per Kilogram</nciodm:PreferredTerm>
                </EnumeratedItem>
                <EnumeratedItem CodedValue="min*nmol/L/kg" nciodm:ExtCodeID="C112351">
                    <nciodm:CDISCSynonym>min*nmol/L/kg</nciodm:CDISCSynonym>
                    <nciodm:CDISCSynonym>min*pmol/L/g</nciodm:CDISCSynonym>
                    <nciodm:CDISCDefinition>Minutes times nanomoles per liter (area under the curve), divided by kilograms (weight) or minutes times picomoles per liter (area under the curve), divided by grams (weight).</nciodm:CDISCDefinition>
                    <nciodm:PreferredTerm>Minute Times Nanomole Per Liter Per Kilogram</nciodm:PreferredTerm>
                </EnumeratedItem>
                <EnumeratedItem CodedValue="min*pg/mL/kg" nciodm:ExtCodeID="C112334">
                    <nciodm:CDISCSynonym>min*fg/mL/g</nciodm:CDISCSynonym>
                    <nciodm:CDISCSynonym>min*pg/mL/kg</nciodm:CDISCSynonym>
                    <nciodm:CDISCDefinition>Minutes times picograms per milliliter (area under the curve), divided by kilograms (weight) or minutes times femtograms per milliliter (area under the curve), divided by grams (weight).</nciodm:CDISCDefinition>
                    <nciodm:PreferredTerm>Minute Times Femtogram Per Milliliter Per Gram</nciodm:PreferredTerm>
                </EnumeratedItem>
                <EnumeratedItem CodedValue="min*pmol/L/kg" nciodm:ExtCodeID="C112355">
                    <nciodm:CDISCDefinition>Minutes times picomoles per liter (area under the curve), divided by kilograms (weight).</nciodm:CDISCDefinition>
                    <nciodm:PreferredTerm>Minute Times Picomole Per Liter Per Kilogram</nciodm:PreferredTerm>
                </EnumeratedItem>
                <EnumeratedItem CodedValue="min*ug/mL/kg" nciodm:ExtCodeID="C112339">
                    <nciodm:CDISCSynonym>min*ng/mL/g</nciodm:CDISCSynonym>
                    <nciodm:CDISCSynonym>min*ug/mL/kg</nciodm:CDISCSynonym>
                    <nciodm:CDISCDefinition>Minutes times micrograms per milliliter (area under the curve), divided by kilograms (weight) or minutes times nanograms per milliliter (area under the curve), divided by grams (weight).</nciodm:CDISCDefinition>
                    <nciodm:PreferredTerm>Minute Times Microgram Per Milliliter Per Kilogram</nciodm:PreferredTerm>
                </EnumeratedItem>
                <EnumeratedItem CodedValue="min*umol/L/kg" nciodm:ExtCodeID="C112341">
                    <nciodm:CDISCSynonym>min*nmol/L/g</nciodm:CDISCSynonym>
                    <nciodm:CDISCSynonym>min*umol/L/kg</nciodm:CDISCSynonym>
                    <nciodm:CDISCDefinition>Minutes times micromoles per liter (area under the curve), divided by kilograms (weight) or minutes times nanomoles per liter (area under the curve), divided by grams (weight).</nciodm:CDISCDefinition>
                    <nciodm:PreferredTerm>Minute Times Micromole Per Liter Per Kilogram</nciodm:PreferredTerm>
                </EnumeratedItem>
                <EnumeratedItem CodedValue="mIU/mL/kg" nciodm:ExtCodeID="C119408">
                    <nciodm:CDISCSynonym>mIU/mL/kg</nciodm:CDISCSynonym>
                    <nciodm:CDISCSynonym>uIU/mL/g</nciodm:CDISCSynonym>
                    <nciodm:CDISCDefinition>Milli-international units per milliliter (concentration), divided by kilograms (weight) or micro-international units per milliliter (concentration), divided by grams (weight).</nciodm:CDISCDefinition>
                    <nciodm:PreferredTerm>Milli-International Unit per Milliliter per Kilogram</nciodm:PreferredTerm>
                </EnumeratedItem>
                <EnumeratedItem CodedValue="mL/kg" nciodm:ExtCodeID="C67411">
                    <nciodm:CDISCDefinition>Milliliters (volume) divided by kilograms (weight).</nciodm:CDISCDefinition>
                    <nciodm:PreferredTerm>Milliliter per Kilogram</nciodm:PreferredTerm>
                </EnumeratedItem>
                <EnumeratedItem CodedValue="mmol/L/kg" nciodm:ExtCodeID="C85784">
                    <nciodm:CDISCSynonym>mmol/L/kg</nciodm:CDISCSynonym>
                    <nciodm:CDISCSynonym>nmol/L/mg</nciodm:CDISCSynonym>
                    <nciodm:CDISCSynonym>pmol/L/ug</nciodm:CDISCSynonym>
                    <nciodm:CDISCSynonym>umol/L/g</nciodm:CDISCSynonym>
                    <nciodm:CDISCDefinition>Millimoles per liter (concentration), divided by kilograms (weight) or micromoles per liter (concentration), divided by grams (weight) or nanomoles per liter (concentration), divided by milligrams (dose) or picomoles per liter (concentration), divided by micrograms (dose).</nciodm:CDISCDefinition>
                    <nciodm:PreferredTerm>Picomole per Liter per Microgram</nciodm:PreferredTerm>
                </EnumeratedItem>
                <EnumeratedItem CodedValue="mol/L/kg" nciodm:ExtCodeID="C119423">
                    <nciodm:CDISCSynonym>mmol/L/g</nciodm:CDISCSynonym>
                    <nciodm:CDISCSynonym>mol/L/kg</nciodm:CDISCSynonym>
                    <nciodm:CDISCSynonym>nmol/L/ug</nciodm:CDISCSynonym>
                    <nciodm:CDISCSynonym>umol/L/mg</nciodm:CDISCSynonym>
                    <nciodm:CDISCDefinition>Moles per liter (concentration), divided by kilograms (weight) or millimoles per liter (concentration), divided by grams (weight) or micromoles per liter (concentration), divided by milligrams (dose) or nanomoles per liter (concentration), divided by micrograms (dose).</nciodm:CDISCDefinition>
                    <nciodm:PreferredTerm>Millimole per Liter per Gram</nciodm:PreferredTerm>
                </EnumeratedItem>
                <EnumeratedItem CodedValue="ng/kg/min" nciodm:ExtCodeID="C85743">
                    <nciodm:CDISCDefinition>Nanograms per kilogram per minute.</nciodm:CDISCDefinition>
                    <nciodm:PreferredTerm>Nanogram per Kilogram per Minute</nciodm:PreferredTerm>
                </EnumeratedItem>
                <EnumeratedItem CodedValue="ng/mL/kg" nciodm:ExtCodeID="C85746">
                    <nciodm:CDISCSynonym>fg/mL/mg</nciodm:CDISCSynonym>
                    <nciodm:CDISCSynonym>ng/mL/kg</nciodm:CDISCSynonym>
                    <nciodm:CDISCSynonym>pg/mL/g</nciodm:CDISCSynonym>
                    <nciodm:CDISCDefinition>Nanograms per milliliter (concentration), divided by kilograms (weight) or picograms per milliliter (concentration), divided by grams (weight) or femtograms per milliliter (concentration), divided by milligrams (dose).</nciodm:CDISCDefinition>
                    <nciodm:PreferredTerm>Nanogram per Milliliter per Kilogram</nciodm:PreferredTerm>
                </EnumeratedItem>
                <EnumeratedItem CodedValue="nmol/kg" nciodm:ExtCodeID="C85754">
                    <nciodm:CDISCSynonym>nmol/kg</nciodm:CDISCSynonym>
                    <nciodm:CDISCSynonym>pmol/g</nciodm:CDISCSynonym>
                    <nciodm:CDISCDefinition>Nanomoles (amount), divided by kilograms (weight) or picomoles per gram.</nciodm:CDISCDefinition>
                    <nciodm:PreferredTerm>Nanomole per Kilogram</nciodm:PreferredTerm>
                </EnumeratedItem>
                <EnumeratedItem CodedValue="nmol/L/kg" nciodm:ExtCodeID="C119468">
                    <nciodm:CDISCSynonym>nmol/L/kg</nciodm:CDISCSynonym>
                    <nciodm:CDISCSynonym>pmol/L/g</nciodm:CDISCSynonym>
                    <nciodm:CDISCDefinition>Nanomoles per liter (concentration), divided by kilograms (weight) or picomoles per liter (concentration), divided by grams (weight).</nciodm:CDISCDefinition>
                    <nciodm:PreferredTerm>Nanomole per Liter per Kilogram</nciodm:PreferredTerm>
                </EnumeratedItem>
                <EnumeratedItem CodedValue="pg/mL/kg" nciodm:ExtCodeID="C119347">
                    <nciodm:CDISCSynonym>fg/mL/g</nciodm:CDISCSynonym>
                    <nciodm:CDISCSynonym>pg/mL/kg</nciodm:CDISCSynonym>
                    <nciodm:CDISCDefinition>Picograms per milliliter (concentration), divided by kilograms (weight) or femtograms per milliliter (concentration), divided by grams (weight).</nciodm:CDISCDefinition>
                    <nciodm:PreferredTerm>Femtogram per Milliliter per Gram</nciodm:PreferredTerm>
                </EnumeratedItem>
                <EnumeratedItem CodedValue="pmol/L/kg" nciodm:ExtCodeID="C119497">
                    <nciodm:CDISCDefinition>Picomoles per liter (concentration), divided by kilograms (weight).</nciodm:CDISCDefinition>
                    <nciodm:PreferredTerm>Picomole per Liter per Kilogram</nciodm:PreferredTerm>
                </EnumeratedItem>
                <EnumeratedItem CodedValue="ug/mL/kg" nciodm:ExtCodeID="C119351">
                    <nciodm:CDISCSynonym>fg/mL/ug</nciodm:CDISCSynonym>
                    <nciodm:CDISCSynonym>ng/mL/g</nciodm:CDISCSynonym>
                    <nciodm:CDISCSynonym>pg/mL/mg</nciodm:CDISCSynonym>
                    <nciodm:CDISCSynonym>ug/mL/kg</nciodm:CDISCSynonym>
                    <nciodm:CDISCDefinition>Micrograms per milliliter (concentration), divided by kilograms (weight) or nanograms per milliliter (concentration), divided by grams (weight) or picograms per milliliter (concentration), divided by milligrams (dose) or femtograms per milliliter (concentration), divided by micrograms (dose).</nciodm:CDISCDefinition>
                    <nciodm:PreferredTerm>Femtogram per Milliliter per Microgram</nciodm:PreferredTerm>
                </EnumeratedItem>
                <EnumeratedItem CodedValue="uIU/mL/kg" nciodm:ExtCodeID="C119525">
                    <nciodm:CDISCDefinition>Micro-international units per milliliter (concentration), divided by kilograms (weight).</nciodm:CDISCDefinition>
                    <nciodm:PreferredTerm>Micro-International Units per Milliliter per Kilogram</nciodm:PreferredTerm>
                </EnumeratedItem>
                <EnumeratedItem CodedValue="umol/L/kg" nciodm:ExtCodeID="C119467">
                    <nciodm:CDISCSynonym>nmol/L/g</nciodm:CDISCSynonym>
                    <nciodm:CDISCSynonym>pmol/L/mg</nciodm:CDISCSynonym>
                    <nciodm:CDISCSynonym>umol/L/kg</nciodm:CDISCSynonym>
                    <nciodm:CDISCDefinition>Micromoles per liter (concentration), divided by kilograms (weight) or nanomoles per liter (concentration), divided by grams (weight) or picomoles per liter (concentration), divided by milligrams (dose).</nciodm:CDISCDefinition>
                    <nciodm:PreferredTerm>Nanomole per Liter per Gram</nciodm:PreferredTerm>
                </EnumeratedItem>
                <nciodm:CDISCSubmissionValue>PKUWKG</nciodm:CDISCSubmissionValue>
                <nciodm:CDISCSynonym>PK Units of Measure - Weight kg</nciodm:CDISCSynonym>
                <nciodm:PreferredTerm>CDISC SDTM PK Unit of Measure Kilogram Weight Terminology</nciodm:PreferredTerm>
            </CodeList>
            
