<CodeList xmlns="http://www.cdisc.org/ns/odm/v1.3" xmlns:nciodm="http://ncicb.nci.nih.gov/xml/odm/EVS/CDISC" xmlns:xs="http://www.w3.org/2001/XMLSchema-instance" OID="CL.C115390.HAI01TC" Name="Hauser Ambulation Index Functional Test Test Code" DataType="text" nciodm:ExtCodeID="C115390" nciodm:CodeListExtensible="No">
                <Description>
                    <TranslatedText xml:lang="en">Hauser Ambulation Index test code.</TranslatedText>
                </Description>
                <EnumeratedItem CodedValue="HAI0101" nciodm:ExtCodeID="C115806">
                    <nciodm:CDISCSynonym>HAI01-Ambulation Index</nciodm:CDISCSynonym>
                    <nciodm:CDISCDefinition>Hauser Ambulation Index - Ambulation index.</nciodm:CDISCDefinition>
                    <nciodm:PreferredTerm>HAI - Ambulation Index</nciodm:PreferredTerm>
                </EnumeratedItem>
                <nciodm:CDISCSubmissionValue>HAI01TC</nciodm:CDISCSubmissionValue>
                <nciodm:CDISCSynonym>Hauser Ambulation Index Functional Test Test Code</nciodm:CDISCSynonym>
                <nciodm:PreferredTerm>CDISC Functional Test HAI Test Code Terminology</nciodm:PreferredTerm>
            </CodeList>
            
