<CodeList xmlns="http://www.cdisc.org/ns/odm/v1.3" xmlns:nciodm="http://ncicb.nci.nih.gov/xml/odm/EVS/CDISC" xmlns:xs="http://www.w3.org/2001/XMLSchema-instance" OID="CL.C113845.BCR101TN" Name="Borg CR10 Scale Questionnaire Test Name" DataType="text" nciodm:ExtCodeID="C113845" nciodm:CodeListExtensible="No">
                <Description>
                    <TranslatedText xml:lang="en">Borg CR10 scale test name.</TranslatedText>
                </Description>
                <EnumeratedItem CodedValue="BCR101-Rating" nciodm:ExtCodeID="C113888">
                    <nciodm:CDISCSynonym>BCR101-Rating</nciodm:CDISCSynonym>
                    <nciodm:CDISCDefinition>Borg CR10 Scale - Rating.</nciodm:CDISCDefinition>
                    <nciodm:PreferredTerm>Borg CR10 - Rating</nciodm:PreferredTerm>
                </EnumeratedItem>
                <nciodm:CDISCSubmissionValue>BCR101TN</nciodm:CDISCSubmissionValue>
                <nciodm:CDISCSynonym>Borg CR10 Scale Questionnaire Test Name</nciodm:CDISCSynonym>
                <nciodm:PreferredTerm>CDISC Questionnaire Borg CR10 Test Name Terminology</nciodm:PreferredTerm>
            </CodeList>
            
