<CodeList xmlns="http://www.cdisc.org/ns/odm/v1.3" xmlns:nciodm="http://ncicb.nci.nih.gov/xml/odm/EVS/CDISC" xmlns:xs="http://www.w3.org/2001/XMLSchema-instance" OID="CL.C115304.FTCAT" Name="Category of Functional Test" DataType="text" nciodm:ExtCodeID="C115304" nciodm:CodeListExtensible="Yes">
                <Description>
                    <TranslatedText xml:lang="en">A grouping of observations within the Functional Tests domain.</TranslatedText>
                </Description>
                <EnumeratedItem CodedValue="AVLT" nciodm:ExtCodeID="C102112">
                    <nciodm:CDISCSynonym>AVL01</nciodm:CDISCSynonym>
                    <nciodm:CDISCDefinition>The Alzheimer's Disease Neuroimaging Initiative's (ADNI) version of the Auditory Verbal Learning Test (AVLT Version A) modified from Rey A. L'examen clinique en psychologie [Clinical tests in psychology]. Paris: Presses Universitaires de France; 1964.</nciodm:CDISCDefinition>
                    <nciodm:PreferredTerm>Alzheimer's Disease Neuroimaging Initiative Auditory Verbal Learning Test Functional Test</nciodm:PreferredTerm>
                </EnumeratedItem>
                <EnumeratedItem CodedValue="AVLT-REY" nciodm:ExtCodeID="C123668">
                    <nciodm:CDISCSynonym>AVL02</nciodm:CDISCSynonym>
                    <nciodm:CDISCDefinition>Auditory Verbal Learning Test (AVLT-Rey) (Modified from Rey A. L'examen clinique en psychologie [Clinical tests in psychology]. Paris: Presses Universitaires de France; 1964. Test-Retest Reliability of a New Form of Auditory Verbal Learning Test (AVLT); Archives of Clinical Neuropsycology, Vol. 9, No. 4, pp. 303-316, 1994. Performance of Healthy Subjects and Patients with Resection from the Anterior Temporal Lobe on Matched Tests of Verbal and Visuoperceptual Learning; Journal of Clinical and Experimental Neuropsychology 1996, Vol. 18, No. 3, pp. 416-430).</nciodm:CDISCDefinition>
                    <nciodm:PreferredTerm>Rey Auditory Verbal Learning Functional Test</nciodm:PreferredTerm>
                </EnumeratedItem>
                <EnumeratedItem CodedValue="BACS" nciodm:ExtCodeID="C121004">
                    <nciodm:CDISCSynonym>BACS1</nciodm:CDISCSynonym>
                    <nciodm:CDISCDefinition>Brief Assessment of Cognition in Schizophrenia (BACS) (Richard Keefe, PhD, Copyright 1999 Duke University Medical Center, Licenses available through Neurocog Trials, Inc.).</nciodm:CDISCDefinition>
                    <nciodm:PreferredTerm>Brief Assessment of Cognition in Schizophrenia Functional Test</nciodm:PreferredTerm>
                </EnumeratedItem>
                <EnumeratedItem CodedValue="HAUSER AMBULATION INDEX" nciodm:ExtCodeID="C115790">
                    <nciodm:CDISCSynonym>HAI01</nciodm:CDISCSynonym>
                    <nciodm:CDISCDefinition>Hauser Ambulation Index (AI) (Hauser SL, Dawson DM, Lehrich JR, Beal MF, Kevy SV, Propper RD, Mills JA, Weiner HL. Intensive immunosuppression in progressive multiple sclerosis. A randomized, three-arm study of high-dose intravenous cyclophosphamide, plasma exchange, and ACTH. N Engl J Med. 1983 Jan 27;308(4):173-80).</nciodm:CDISCDefinition>
                    <nciodm:PreferredTerm>Hauser Ambulation Index Functional Test</nciodm:PreferredTerm>
                </EnumeratedItem>
                <EnumeratedItem CodedValue="MOCA" nciodm:ExtCodeID="C123667">
                    <nciodm:CDISCSynonym>MOCA01</nciodm:CDISCSynonym>
                    <nciodm:CDISCDefinition>Montreal Cognitive Assessment (MoCA) (Copyright Z. Nasreddine MD. Ziad S. Nasreddine, Natalie A. Phillips, Valerie Bedirian, Simon Charbonneau, Victor Whitehead, Isabelle Collin, Jeffrey L. Cummings and Howard Chertkow. The Montreal Cognitive Assessment, MoCA: A Brief Screening Tool For Mild Cognitive Impairment. J Am Geriatr Soc. 2005 Apr;53(4):695-9).</nciodm:CDISCDefinition>
                    <nciodm:PreferredTerm>Montreal Cognitive Assessment Functional Test</nciodm:PreferredTerm>
                </EnumeratedItem>
                <EnumeratedItem CodedValue="NHPT" nciodm:ExtCodeID="C115791">
                    <nciodm:CDISCSynonym>NHPT01</nciodm:CDISCSynonym>
                    <nciodm:CDISCDefinition>Nine-Hole Peg Test (NHPT) (Copyright 2001, National Multiple Sclerosis Society).</nciodm:CDISCDefinition>
                    <nciodm:PreferredTerm>Nine-Hole Peg Functional Test</nciodm:PreferredTerm>
                </EnumeratedItem>
                <EnumeratedItem CodedValue="PASAT" nciodm:ExtCodeID="C115792">
                    <nciodm:CDISCSynonym>PASAT1</nciodm:CDISCSynonym>
                    <nciodm:CDISCDefinition>Paced Auditory Serial Addition Test (PASAT) (Copyright 2001, National Multiple Sclerosis Society).</nciodm:CDISCDefinition>
                    <nciodm:PreferredTerm>Paced Auditory Serial Addition Functional Test</nciodm:PreferredTerm>
                </EnumeratedItem>
                <EnumeratedItem CodedValue="SDMT" nciodm:ExtCodeID="C115793">
                    <nciodm:CDISCSynonym>SDMT01</nciodm:CDISCSynonym>
                    <nciodm:CDISCDefinition>Symbol Digit Modalities Test (SDMT) (Copyright 1973 by Western Psychological Services).</nciodm:CDISCDefinition>
                    <nciodm:PreferredTerm>Symbol Digit Modalities Functional Test</nciodm:PreferredTerm>
                </EnumeratedItem>
                <EnumeratedItem CodedValue="SIX MINUTE WALK" nciodm:ExtCodeID="C115789">
                    <nciodm:CDISCSynonym>SIXMW1</nciodm:CDISCSynonym>
                    <nciodm:CDISCDefinition>6 Minute Walk Test (6MWT) (Goldman MD, Marrie RA, Cohen JA. Evaluation of the six-minute walk in multiple sclerosis subjects and healthy controls. Multiple Sclerosis 2008; 14: 383-390).</nciodm:CDISCDefinition>
                    <nciodm:PreferredTerm>6 Minute Walk Functional Test</nciodm:PreferredTerm>
                </EnumeratedItem>
                <EnumeratedItem CodedValue="T25FW" nciodm:ExtCodeID="C115794">
                    <nciodm:CDISCSynonym>T25FW1</nciodm:CDISCSynonym>
                    <nciodm:CDISCDefinition>Timed 25-Foot Walk (T25FW) (Copyright 2001, National Multiple Sclerosis Society).</nciodm:CDISCDefinition>
                    <nciodm:PreferredTerm>Timed 25-Foot Walk Functional Test</nciodm:PreferredTerm>
                </EnumeratedItem>
                <EnumeratedItem CodedValue="TMT" nciodm:ExtCodeID="C92205">
                    <nciodm:CDISCSynonym>TMT01</nciodm:CDISCSynonym>
                    <nciodm:CDISCDefinition>Trail Making Test (TMT) [(Copyright Owner: Dr. Jim Hom, The Neuropsychology Center, 500 N. Central Expressway, Suite 272, Plano TX 75074-6877. Ph: 469-429-8890, www.neuropsych.com.)(Manual: Army Individual Test. War Department, The Adjutant General's Office, 1944.)(Reitan RM. The Relation of the Trail Making Test to Organic Brain Damage; Journal of Consulting Psychology 1955 Oct 19(5):393-4.)(Reitan R.M. (1958). The validity of the Trail Making Test as an indicator of organic brain damage; Perceptual and Motor Skills, 8, 271-276.)].</nciodm:CDISCDefinition>
                    <nciodm:PreferredTerm>Trail Making Test</nciodm:PreferredTerm>
                </EnumeratedItem>
                <EnumeratedItem CodedValue="TUG" nciodm:ExtCodeID="C115795">
                    <nciodm:CDISCSynonym>TUG01</nciodm:CDISCSynonym>
                    <nciodm:CDISCDefinition>Timed Up and Go (TUG) (Podsiadlo D, Richardson S. The Timed 'Up &amp; Go': a test of basic functional mobility for frail elderly persons. J Am Geriatr Soc. 1991; 39:142-148).</nciodm:CDISCDefinition>
                    <nciodm:PreferredTerm>Timed Up and Go Functional Test</nciodm:PreferredTerm>
                </EnumeratedItem>
                <nciodm:CDISCSubmissionValue>FTCAT</nciodm:CDISCSubmissionValue>
                <nciodm:CDISCSynonym>Category of Functional Test</nciodm:CDISCSynonym>
                <nciodm:PreferredTerm>CDISC Functional Test Category Terminology</nciodm:PreferredTerm>
            </CodeList>
            
