<CodeList xmlns="http://www.cdisc.org/ns/odm/v1.3" xmlns:nciodm="http://ncicb.nci.nih.gov/xml/odm/EVS/CDISC" xmlns:xs="http://www.w3.org/2001/XMLSchema-instance" OID="CL.C105129.DAD TEST" Name="Disability Assessment for Dementia Questionnaire Test Name" DataType="text" nciodm:ExtCodeID="C105129" nciodm:CodeListExtensible="No">
                <Description>
                    <TranslatedText xml:lang="en">Disability Assessment for Dementia test name.</TranslatedText>
                </Description>
                <EnumeratedItem CodedValue="DAD01-Adequately Organize an Outing" nciodm:ExtCodeID="C105195">
                    <nciodm:CDISCSynonym>DAD01-Adequately Organize an Outing</nciodm:CDISCSynonym>
                    <nciodm:CDISCDefinition>Disability Assessment for Dementia - Adequately organize an outing with respect to transportation, keys, destination, weather, necessary money, shopping list?</nciodm:CDISCDefinition>
                    <nciodm:PreferredTerm>DAD - Adequately Organize an Outing with Respect to Transportation, Keys, Destination, Weather, Money, Shopping List</nciodm:PreferredTerm>
                </EnumeratedItem>
                <EnumeratedItem CodedValue="DAD01-Adequately Organize Correspondence" nciodm:ExtCodeID="C105201">
                    <nciodm:CDISCSynonym>DAD01-Adequately Organize Correspondence</nciodm:CDISCSynonym>
                    <nciodm:CDISCDefinition>Disability Assessment for Dementia - Adequately organize his/her correspondence with respect to stationery, address, stamps?</nciodm:CDISCDefinition>
                    <nciodm:PreferredTerm>DAD - Adequately Organize Correspondence</nciodm:PreferredTerm>
                </EnumeratedItem>
                <EnumeratedItem CodedValue="DAD01-Adequately Plan Light Meal Snack" nciodm:ExtCodeID="C105188">
                    <nciodm:CDISCSynonym>DAD01-Adequately Plan Light Meal Snack</nciodm:CDISCSynonym>
                    <nciodm:CDISCDefinition>Disability Assessment for Dementia - Adequately plan a light meal or snack (ingredients, cookware)?</nciodm:CDISCDefinition>
                    <nciodm:PreferredTerm>DAD - Adequately Plan a Light Meal or Snack</nciodm:PreferredTerm>
                </EnumeratedItem>
                <EnumeratedItem CodedValue="DAD01-Brush Teeth Take Care of Dentures" nciodm:ExtCodeID="C105175">
                    <nciodm:CDISCSynonym>DAD01-Brush Teeth Take Care of Dentures</nciodm:CDISCSynonym>
                    <nciodm:CDISCDefinition>Disability Assessment for Dementia - Brush his/her teeth or take care of his/her dentures appropriately?</nciodm:CDISCDefinition>
                    <nciodm:PreferredTerm>DAD - Brush Teeth or Take Care of Dentures Appropriately</nciodm:PreferredTerm>
                </EnumeratedItem>
                <EnumeratedItem CodedValue="DAD01-Carry Out Telephone Conversation" nciodm:ExtCodeID="C105192">
                    <nciodm:CDISCSynonym>DAD01-Carry Out Telephone Conversation</nciodm:CDISCSynonym>
                    <nciodm:CDISCDefinition>Disability Assessment for Dementia - Carry out an appropriate telephone conversation?</nciodm:CDISCDefinition>
                    <nciodm:PreferredTerm>DAD - Carry Out an Appropriate Telephone Conversation</nciodm:PreferredTerm>
                </EnumeratedItem>
                <EnumeratedItem CodedValue="DAD01-Choose Appropriate Clothing" nciodm:ExtCodeID="C105178">
                    <nciodm:CDISCSynonym>DAD01-Choose Appropriate Clothing</nciodm:CDISCSynonym>
                    <nciodm:CDISCDefinition>Disability Assessment for Dementia - Choose appropriate clothing (with regard to the occasion, neatness, the weather and color combination)?</nciodm:CDISCDefinition>
                    <nciodm:PreferredTerm>DAD - Choose Appropriate Clothing</nciodm:PreferredTerm>
                </EnumeratedItem>
                <EnumeratedItem CodedValue="DAD01-Choose Appropriate Utensils" nciodm:ExtCodeID="C105185">
                    <nciodm:CDISCSynonym>DAD01-Choose Appropriate Utensils</nciodm:CDISCSynonym>
                    <nciodm:CDISCDefinition>Disability Assessment for Dementia - Choose appropriate utensils and seasonings when eating?</nciodm:CDISCDefinition>
                    <nciodm:PreferredTerm>DAD - Choose Appropriate Utensils and Seasonings When Eating</nciodm:PreferredTerm>
                </EnumeratedItem>
                <EnumeratedItem CodedValue="DAD01-Complete Household Chores" nciodm:ExtCodeID="C105208">
                    <nciodm:CDISCSynonym>DAD01-Complete Household Chores</nciodm:CDISCSynonym>
                    <nciodm:CDISCDefinition>Disability Assessment for Dementia - Complete household chores adequately as he/she used to perform in the past?</nciodm:CDISCDefinition>
                    <nciodm:PreferredTerm>DAD - Complete Household Chores Adequately as in the Past</nciodm:PreferredTerm>
                </EnumeratedItem>
                <EnumeratedItem CodedValue="DAD01-Decide That He/She Needs to Eat" nciodm:ExtCodeID="C105184">
                    <nciodm:CDISCSynonym>DAD01-Decide That He/She Needs to Eat</nciodm:CDISCSynonym>
                    <nciodm:CDISCDefinition>Disability Assessment for Dementia - Decide that he/she needs to eat?</nciodm:CDISCDefinition>
                    <nciodm:PreferredTerm>DAD - Decide That He/She Needs to Eat</nciodm:PreferredTerm>
                </EnumeratedItem>
                <EnumeratedItem CodedValue="DAD01-Decide to Brush Teeth Dentures" nciodm:ExtCodeID="C105171">
                    <nciodm:CDISCSynonym>DAD01-Decide to Brush Teeth Dentures</nciodm:CDISCSynonym>
                    <nciodm:CDISCDefinition>Disability Assessment for Dementia - Decide to brush his/her teeth or care for his/her dentures?</nciodm:CDISCDefinition>
                    <nciodm:PreferredTerm>DAD - Decide to Brush Teeth or Care for Dentures</nciodm:PreferredTerm>
                </EnumeratedItem>
                <EnumeratedItem CodedValue="DAD01-Decide to Care For Hair" nciodm:ExtCodeID="C105172">
                    <nciodm:CDISCSynonym>DAD01-Decide to Care For Hair</nciodm:CDISCSynonym>
                    <nciodm:CDISCDefinition>Disability Assessment for Dementia - Decide to care for his/her hair (wash and comb)?</nciodm:CDISCDefinition>
                    <nciodm:PreferredTerm>DAD - Decide to Care for His/Her Hair</nciodm:PreferredTerm>
                </EnumeratedItem>
                <EnumeratedItem CodedValue="DAD01-Decide to Dress" nciodm:ExtCodeID="C105177">
                    <nciodm:CDISCSynonym>DAD01-Decide to Dress</nciodm:CDISCSynonym>
                    <nciodm:CDISCDefinition>Disability Assessment for Dementia - Decide to dress himself/herself?</nciodm:CDISCDefinition>
                    <nciodm:PreferredTerm>DAD - Decide to Dress Himself/Herself</nciodm:PreferredTerm>
                </EnumeratedItem>
                <EnumeratedItem CodedValue="DAD01-Decide to Go Out" nciodm:ExtCodeID="C105194">
                    <nciodm:CDISCSynonym>DAD01-Decide to Go Out</nciodm:CDISCSynonym>
                    <nciodm:CDISCDefinition>Disability Assessment for Dementia - Decide to go out (walk, visit, shop) at an appropriate time?</nciodm:CDISCDefinition>
                    <nciodm:PreferredTerm>DAD - Decide to Go Out at an Appropriate Time</nciodm:PreferredTerm>
                </EnumeratedItem>
                <EnumeratedItem CodedValue="DAD01-Decide to Prepare Meal Snack" nciodm:ExtCodeID="C105187">
                    <nciodm:CDISCSynonym>DAD01-Decide to Prepare Meal Snack</nciodm:CDISCSynonym>
                    <nciodm:CDISCDefinition>Disability Assessment for Dementia - Decide to prepare a light meal or snack for himself/herself?</nciodm:CDISCDefinition>
                    <nciodm:PreferredTerm>DAD - Decide to Prepare a Light Meal or Snack for Himself/Herself</nciodm:PreferredTerm>
                </EnumeratedItem>
                <EnumeratedItem CodedValue="DAD01-Decide to Wash" nciodm:ExtCodeID="C105170">
                    <nciodm:CDISCSynonym>DAD01-Decide to Wash</nciodm:CDISCSynonym>
                    <nciodm:CDISCDefinition>Disability Assessment for Dementia - Decide to wash himself/herself or to take a bath or shower?</nciodm:CDISCDefinition>
                    <nciodm:PreferredTerm>DAD - Decide to Wash or Take a Bath or Shower</nciodm:PreferredTerm>
                </EnumeratedItem>
                <EnumeratedItem CodedValue="DAD01-Dress Completely" nciodm:ExtCodeID="C105180">
                    <nciodm:CDISCSynonym>DAD01-Dress Completely</nciodm:CDISCSynonym>
                    <nciodm:CDISCDefinition>Disability Assessment for Dementia - Dress himself/herself completely?</nciodm:CDISCDefinition>
                    <nciodm:PreferredTerm>DAD - Dress Himself/Herself Completely</nciodm:PreferredTerm>
                </EnumeratedItem>
                <EnumeratedItem CodedValue="DAD01-Dress in Appropriate Order" nciodm:ExtCodeID="C105179">
                    <nciodm:CDISCSynonym>DAD01-Dress in Appropriate Order</nciodm:CDISCSynonym>
                    <nciodm:CDISCDefinition>Disability Assessment for Dementia - Dress himself/herself in the appropriate order (undergarments, pant/dress, shoes)?</nciodm:CDISCDefinition>
                    <nciodm:PreferredTerm>DAD - Dress in the Appropriate Order</nciodm:PreferredTerm>
                </EnumeratedItem>
                <EnumeratedItem CodedValue="DAD01-Eat at Normal Pace With Manners" nciodm:ExtCodeID="C105186">
                    <nciodm:CDISCSynonym>DAD01-Eat at Normal Pace With Manners</nciodm:CDISCSynonym>
                    <nciodm:CDISCDefinition>Disability Assessment for Dementia - Eat his/her meals at a normal pace and with appropriate manners?</nciodm:CDISCDefinition>
                    <nciodm:PreferredTerm>DAD - Eat Meals at a Normal Pace and with Appropriate Manners</nciodm:PreferredTerm>
                </EnumeratedItem>
                <EnumeratedItem CodedValue="DAD01-Effective Perf Num Applic Items" nciodm:ExtCodeID="C111581">
                    <nciodm:CDISCSynonym>DAD01-Effective Perf Num Applic Items</nciodm:CDISCSynonym>
                    <nciodm:CDISCDefinition>Disability Assessment for Dementia - Sub-Total Effective Performance Number of Applicable Items.</nciodm:CDISCDefinition>
                    <nciodm:PreferredTerm>DAD - Sub-Total Effective Performance Number of Applicable Items</nciodm:PreferredTerm>
                </EnumeratedItem>
                <EnumeratedItem CodedValue="DAD01-Find and Dial Telephone Number" nciodm:ExtCodeID="C105191">
                    <nciodm:CDISCSynonym>DAD01-Find and Dial Telephone Number</nciodm:CDISCSynonym>
                    <nciodm:CDISCDefinition>Disability Assessment for Dementia - Find and dial a telephone number correctly?</nciodm:CDISCDefinition>
                    <nciodm:PreferredTerm>DAD - Find and Dial a Telephone Number Correctly</nciodm:PreferredTerm>
                </EnumeratedItem>
                <EnumeratedItem CodedValue="DAD01-Go Out Without Getting Lost" nciodm:ExtCodeID="C105196">
                    <nciodm:CDISCSynonym>DAD01-Go Out Without Getting Lost</nciodm:CDISCSynonym>
                    <nciodm:CDISCDefinition>Disability Assessment for Dementia - Go out and reach a familiar destination without getting lost?</nciodm:CDISCDefinition>
                    <nciodm:PreferredTerm>DAD - Go Out and Reach a Familiar Destination Without Getting Lost</nciodm:PreferredTerm>
                </EnumeratedItem>
                <EnumeratedItem CodedValue="DAD01-Handle Money Adequately" nciodm:ExtCodeID="C105202">
                    <nciodm:CDISCSynonym>DAD01-Handle Money Adequately</nciodm:CDISCSynonym>
                    <nciodm:CDISCDefinition>Disability Assessment for Dementia - Handle his/her money adequately (deal with cash)?</nciodm:CDISCDefinition>
                    <nciodm:PreferredTerm>DAD - Handle Money Adequately</nciodm:PreferredTerm>
                </EnumeratedItem>
                <EnumeratedItem CodedValue="DAD01-Initiation Num Applic Items" nciodm:ExtCodeID="C111578">
                    <nciodm:CDISCSynonym>DAD01-Initiation Num Applic Items</nciodm:CDISCSynonym>
                    <nciodm:CDISCDefinition>Disability Assessment for Dementia - Sub-Total Initiation Number of Applicable Items.</nciodm:CDISCDefinition>
                    <nciodm:PreferredTerm>DAD - Total Initiation Number of Applicable Items</nciodm:PreferredTerm>
                </EnumeratedItem>
                <EnumeratedItem CodedValue="DAD01-Oragnize Finances to Pay Bills" nciodm:ExtCodeID="C105200">
                    <nciodm:CDISCSynonym>DAD01-Oragnize Finances to Pay Bills</nciodm:CDISCSynonym>
                    <nciodm:CDISCDefinition>Disability Assessment for Dementia - Organize his/her finances to pay his/her bills (checks, bank statement, bills)?</nciodm:CDISCDefinition>
                    <nciodm:PreferredTerm>DAD - Organize Finances to Pay Bills</nciodm:PreferredTerm>
                </EnumeratedItem>
                <EnumeratedItem CodedValue="DAD01-Plan &amp; Org Num Applic Items" nciodm:ExtCodeID="C111617">
                    <nciodm:CDISCSynonym>DAD01-Plan &amp; Org Num Applic Items</nciodm:CDISCSynonym>
                    <nciodm:CDISCDefinition>Disability Assessment for Dementia - Sub-Total Planning &amp; Organization Number of Applicable Items.</nciodm:CDISCDefinition>
                    <nciodm:PreferredTerm>DAD - Plan and Organize Number of Applicable Items</nciodm:PreferredTerm>
                </EnumeratedItem>
                <EnumeratedItem CodedValue="DAD01-Plan Organize Household Chores" nciodm:ExtCodeID="C105207">
                    <nciodm:CDISCSynonym>DAD01-Plan Organize Household Chores</nciodm:CDISCSynonym>
                    <nciodm:CDISCDefinition>Disability Assessment for Dementia - Plan and organize adequately household chores that he/she used to perform in the past?</nciodm:CDISCDefinition>
                    <nciodm:PreferredTerm>DAD - Plan and Organize Adequately Household Chores as in the Past</nciodm:PreferredTerm>
                </EnumeratedItem>
                <EnumeratedItem CodedValue="DAD01-Prepare For Washing Bath Shower" nciodm:ExtCodeID="C105173">
                    <nciodm:CDISCSynonym>DAD01-Prepare For Washing Bath Shower</nciodm:CDISCSynonym>
                    <nciodm:CDISCDefinition>Disability Assessment for Dementia - Prepare the water, towels, and soap for washing, taking a bath or a shower?</nciodm:CDISCDefinition>
                    <nciodm:PreferredTerm>DAD - Prepare the Water, Towels, and Soap for Washing, Taking a Bath or Shower</nciodm:PreferredTerm>
                </EnumeratedItem>
                <EnumeratedItem CodedValue="DAD01-Prepare or Cook Light Meal Snack" nciodm:ExtCodeID="C105189">
                    <nciodm:CDISCSynonym>DAD01-Prepare or Cook Light Meal Snack</nciodm:CDISCSynonym>
                    <nciodm:CDISCDefinition>Disability Assessment for Dementia - Prepare or cook a light meal or a snack safely?</nciodm:CDISCDefinition>
                    <nciodm:PreferredTerm>DAD - Safely Prepare or Cook a Light Meal or Snack</nciodm:PreferredTerm>
                </EnumeratedItem>
                <EnumeratedItem CodedValue="DAD01-Return From Store With Items" nciodm:ExtCodeID="C105198">
                    <nciodm:CDISCSynonym>DAD01-Return From Store With Items</nciodm:CDISCSynonym>
                    <nciodm:CDISCDefinition>Disability Assessment for Dementia - Return from the store with the appropriate items?</nciodm:CDISCDefinition>
                    <nciodm:PreferredTerm>DAD - Return From the Store with Appropriate Items</nciodm:PreferredTerm>
                </EnumeratedItem>
                <EnumeratedItem CodedValue="DAD01-Safely Take Transportation" nciodm:ExtCodeID="C105197">
                    <nciodm:CDISCSynonym>DAD01-Safely Take Transportation</nciodm:CDISCSynonym>
                    <nciodm:CDISCDefinition>Disability Assessment for Dementia - Safely take the adequate mode of transportation (car, bus, taxi)?</nciodm:CDISCDefinition>
                    <nciodm:PreferredTerm>DAD - Safely Take the Adequate Mode of Transportation</nciodm:PreferredTerm>
                </EnumeratedItem>
                <EnumeratedItem CodedValue="DAD01-Show Interest in Leisure Activity" nciodm:ExtCodeID="C105205">
                    <nciodm:CDISCSynonym>DAD01-Show Interest in Leisure Activity</nciodm:CDISCSynonym>
                    <nciodm:CDISCDefinition>Disability Assessment for Dementia - Show an interest in leisure activity(ies)?</nciodm:CDISCDefinition>
                    <nciodm:PreferredTerm>DAD - Show an Interest in Leisure Activities</nciodm:PreferredTerm>
                </EnumeratedItem>
                <EnumeratedItem CodedValue="DAD01-Show Interest in Personal Affairs" nciodm:ExtCodeID="C105199">
                    <nciodm:CDISCSynonym>DAD01-Show Interest in Personal Affairs</nciodm:CDISCSynonym>
                    <nciodm:CDISCDefinition>Disability Assessment for Dementia - Show an interest in his/her personal affairs such as his/her finances and written correspondence?</nciodm:CDISCDefinition>
                    <nciodm:PreferredTerm>DAD - Show an Interest in Personal Affairs such as Finances and Written Correspondence</nciodm:PreferredTerm>
                </EnumeratedItem>
                <EnumeratedItem CodedValue="DAD01-Stay Safely at Home When Needed" nciodm:ExtCodeID="C105209">
                    <nciodm:CDISCSynonym>DAD01-Stay Safely at Home When Needed</nciodm:CDISCSynonym>
                    <nciodm:CDISCDefinition>Disability Assessment for Dementia - Stay safely at home by himself/herself when needed?</nciodm:CDISCDefinition>
                    <nciodm:PreferredTerm>DAD - Stay Safely at Home When Needed</nciodm:PreferredTerm>
                </EnumeratedItem>
                <EnumeratedItem CodedValue="DAD01-Sub-Total Effective Performance" nciodm:ExtCodeID="C111580">
                    <nciodm:CDISCSynonym>DAD01-Sub-Total Effective Performance</nciodm:CDISCSynonym>
                    <nciodm:CDISCDefinition>Disability Assessment for Dementia - Sub-Total Effective Performance.</nciodm:CDISCDefinition>
                    <nciodm:PreferredTerm>DAD - Sub-Total Effective Performance</nciodm:PreferredTerm>
                </EnumeratedItem>
                <EnumeratedItem CodedValue="DAD01-Sub-Total Initiation" nciodm:ExtCodeID="C111577">
                    <nciodm:CDISCSynonym>DAD01-Sub-Total Initiation</nciodm:CDISCSynonym>
                    <nciodm:CDISCDefinition>Disability Assessment for Dementia - Sub-Total Initiation.</nciodm:CDISCDefinition>
                    <nciodm:PreferredTerm>DAD - Sub-Total Initiation</nciodm:PreferredTerm>
                </EnumeratedItem>
                <EnumeratedItem CodedValue="DAD01-Sub-Total Planning &amp; Organization" nciodm:ExtCodeID="C111579">
                    <nciodm:CDISCSynonym>DAD01-Sub-Total Planning &amp; Organization</nciodm:CDISCSynonym>
                    <nciodm:CDISCDefinition>Disability Assessment for Dementia - Sub-Total Planning &amp; Organization.</nciodm:CDISCDefinition>
                    <nciodm:PreferredTerm>DAD - Sub-Total Planning and Organization</nciodm:PreferredTerm>
                </EnumeratedItem>
                <EnumeratedItem CodedValue="DAD01-Take Care of Hair" nciodm:ExtCodeID="C105176">
                    <nciodm:CDISCSynonym>DAD01-Take Care of Hair</nciodm:CDISCSynonym>
                    <nciodm:CDISCDefinition>Disability Assessment for Dementia - Take care of his/her hair (wash and comb)?</nciodm:CDISCDefinition>
                    <nciodm:PreferredTerm>DAD - Take Care of His/Her Hair</nciodm:PreferredTerm>
                </EnumeratedItem>
                <EnumeratedItem CodedValue="DAD01-Take Interest in Household Chores" nciodm:ExtCodeID="C105206">
                    <nciodm:CDISCSynonym>DAD01-Take Interest in Household Chores</nciodm:CDISCSynonym>
                    <nciodm:CDISCDefinition>Disability Assessment for Dementia - Take an interest in household chores that he/she used to perform in the past?</nciodm:CDISCDefinition>
                    <nciodm:PreferredTerm>DAD - Take an Interest in Household Chores as in the Past</nciodm:PreferredTerm>
                </EnumeratedItem>
                <EnumeratedItem CodedValue="DAD01-Take Medications as Prescribed" nciodm:ExtCodeID="C105204">
                    <nciodm:CDISCSynonym>DAD01-Take Medications as Prescribed</nciodm:CDISCSynonym>
                    <nciodm:CDISCDefinition>Disability Assessment for Dementia - Take his/her medications as prescribed (according to the right dosage)?</nciodm:CDISCDefinition>
                    <nciodm:PreferredTerm>DAD - Take Medications as Prescribed</nciodm:PreferredTerm>
                </EnumeratedItem>
                <EnumeratedItem CodedValue="DAD01-Take Medications at Correct Time" nciodm:ExtCodeID="C105203">
                    <nciodm:CDISCSynonym>DAD01-Take Medications at Correct Time</nciodm:CDISCSynonym>
                    <nciodm:CDISCDefinition>Disability Assessment for Dementia - Decide to take his/her medications at the correct time?</nciodm:CDISCDefinition>
                    <nciodm:PreferredTerm>DAD - Decide to Take Medications at the Correct Time</nciodm:PreferredTerm>
                </EnumeratedItem>
                <EnumeratedItem CodedValue="DAD01-Telephone Someone at Suitable Time" nciodm:ExtCodeID="C105190">
                    <nciodm:CDISCSynonym>DAD01-Telephone Someone at Suitable Time</nciodm:CDISCSynonym>
                    <nciodm:CDISCDefinition>Disability Assessment for Dementia - Attempt to telephone someone at a suitable time?</nciodm:CDISCDefinition>
                    <nciodm:PreferredTerm>DAD - Attempt to Telephone Someone at a Suitable Time</nciodm:PreferredTerm>
                </EnumeratedItem>
                <EnumeratedItem CodedValue="DAD01-Total %" nciodm:ExtCodeID="C111584">
                    <nciodm:CDISCSynonym>DAD01-Total %</nciodm:CDISCSynonym>
                    <nciodm:CDISCDefinition>Disability Assessment for Dementia - Total %.</nciodm:CDISCDefinition>
                    <nciodm:PreferredTerm>DAD - Total Percent</nciodm:PreferredTerm>
                </EnumeratedItem>
                <EnumeratedItem CodedValue="DAD01-Total Num of Applic Items" nciodm:ExtCodeID="C111583">
                    <nciodm:CDISCSynonym>DAD01-Total Num of Applic Items</nciodm:CDISCSynonym>
                    <nciodm:CDISCDefinition>Disability Assessment for Dementia - Total Number of Applicable Items.</nciodm:CDISCDefinition>
                    <nciodm:PreferredTerm>DAD - Total Number of Applicable Items</nciodm:PreferredTerm>
                </EnumeratedItem>
                <EnumeratedItem CodedValue="DAD01-Total Score" nciodm:ExtCodeID="C111582">
                    <nciodm:CDISCSynonym>DAD01-Total Score</nciodm:CDISCSynonym>
                    <nciodm:CDISCDefinition>Disability Assessment for Dementia - Total Score.</nciodm:CDISCDefinition>
                    <nciodm:PreferredTerm>DAD - Total Score</nciodm:PreferredTerm>
                </EnumeratedItem>
                <EnumeratedItem CodedValue="DAD01-Undress Completely" nciodm:ExtCodeID="C105181">
                    <nciodm:CDISCSynonym>DAD01-Undress Completely</nciodm:CDISCSynonym>
                    <nciodm:CDISCDefinition>Disability Assessment for Dementia - Undress himself/herself completely?</nciodm:CDISCDefinition>
                    <nciodm:PreferredTerm>DAD - Undress Himself/Herself Completely</nciodm:PreferredTerm>
                </EnumeratedItem>
                <EnumeratedItem CodedValue="DAD01-Use Toilet at Appropriate Times" nciodm:ExtCodeID="C105182">
                    <nciodm:CDISCSynonym>DAD01-Use Toilet at Appropriate Times</nciodm:CDISCSynonym>
                    <nciodm:CDISCDefinition>Disability Assessment for Dementia - Decide to use the toilet at appropriate times?</nciodm:CDISCDefinition>
                    <nciodm:PreferredTerm>DAD - Decide to Use the Toilet at Appropriate Times</nciodm:PreferredTerm>
                </EnumeratedItem>
                <EnumeratedItem CodedValue="DAD01-Use Toilet Without Accidents" nciodm:ExtCodeID="C105183">
                    <nciodm:CDISCSynonym>DAD01-Use Toilet Without Accidents</nciodm:CDISCSynonym>
                    <nciodm:CDISCDefinition>Disability Assessment for Dementia - Use the toilet without 'accidents'?</nciodm:CDISCDefinition>
                    <nciodm:PreferredTerm>DAD - Use the Toilet Without Accidents</nciodm:PreferredTerm>
                </EnumeratedItem>
                <EnumeratedItem CodedValue="DAD01-Wash and Dry Body Safely" nciodm:ExtCodeID="C105174">
                    <nciodm:CDISCSynonym>DAD01-Wash and Dry Body Safely</nciodm:CDISCSynonym>
                    <nciodm:CDISCDefinition>Disability Assessment for Dementia - Wash and dry all parts of his/her body safely and completely?</nciodm:CDISCDefinition>
                    <nciodm:PreferredTerm>DAD - Wash and Dry All Parts of Body Safely and Completely</nciodm:PreferredTerm>
                </EnumeratedItem>
                <EnumeratedItem CodedValue="DAD01-Write Convey Telephone Message" nciodm:ExtCodeID="C105193">
                    <nciodm:CDISCSynonym>DAD01-Write Convey Telephone Message</nciodm:CDISCSynonym>
                    <nciodm:CDISCDefinition>Disability Assessment for Dementia - Write and convey a telephone message adequately?</nciodm:CDISCDefinition>
                    <nciodm:PreferredTerm>DAD - Write and Convey a Telephone Message Adequately</nciodm:PreferredTerm>
                </EnumeratedItem>
                <nciodm:CDISCSubmissionValue>DAD TEST</nciodm:CDISCSubmissionValue>
                <nciodm:CDISCSynonym>Disability Assessment for Dementia Questionnaire Test Name</nciodm:CDISCSynonym>
                <nciodm:PreferredTerm>CDISC Questionnaire DAD Test Name Terminology</nciodm:PreferredTerm>
            </CodeList>
            
