<CodeList xmlns="http://www.cdisc.org/ns/odm/v1.3" xmlns:nciodm="http://ncicb.nci.nih.gov/xml/odm/EVS/CDISC" xmlns:xs="http://www.w3.org/2001/XMLSchema-instance" OID="CL.C106478.RPTEST" Name="Reproductive System Findings Test Name" DataType="text" nciodm:ExtCodeID="C106478" nciodm:CodeListExtensible="Yes">
                <Description>
                    <TranslatedText xml:lang="en">A terminology codelist for the physiological test names related to the male and female reproductive systems.</TranslatedText>
                </Description>
                <EnumeratedItem CodedValue="Birth Control Method" nciodm:ExtCodeID="C106501">
                    <nciodm:CDISCSynonym>Birth Control Method</nciodm:CDISCSynonym>
                    <nciodm:CDISCDefinition>The method by which conception or impregnation is prevented.</nciodm:CDISCDefinition>
                    <nciodm:PreferredTerm>Birth Control Method</nciodm:PreferredTerm>
                </EnumeratedItem>
                <EnumeratedItem CodedValue="Childbearing Potential" nciodm:ExtCodeID="C106508">
                    <nciodm:CDISCSynonym>Childbearing Potential</nciodm:CDISCSynonym>
                    <nciodm:CDISCDefinition>An indicator as to whether the female subject has the potential to become pregnant. (NCI)</nciodm:CDISCDefinition>
                    <nciodm:PreferredTerm>Childbearing Potential</nciodm:PreferredTerm>
                </EnumeratedItem>
                <EnumeratedItem CodedValue="Congenital Abnormality Indicator" nciodm:ExtCodeID="C122187">
                    <nciodm:CDISCSynonym>Congenital Abnormality Indicator</nciodm:CDISCSynonym>
                    <nciodm:CDISCDefinition>An indication as to whether any abnormality was present at birth or during the neonatal period.</nciodm:CDISCDefinition>
                    <nciodm:PreferredTerm>Congenital Abnormality Indicator</nciodm:PreferredTerm>
                </EnumeratedItem>
                <EnumeratedItem CodedValue="Estimated Date of Conception" nciodm:ExtCodeID="C120833">
                    <nciodm:CDISCSynonym>Estimated Date of Conception</nciodm:CDISCSynonym>
                    <nciodm:CDISCDefinition>An approximate calculated date at which the conception event took place.</nciodm:CDISCDefinition>
                    <nciodm:PreferredTerm>Estimated Date of Conception</nciodm:PreferredTerm>
                </EnumeratedItem>
                <EnumeratedItem CodedValue="Estimated Date of Delivery" nciodm:ExtCodeID="C81247">
                    <nciodm:CDISCSynonym>Estimated Date of Delivery</nciodm:CDISCSynonym>
                    <nciodm:CDISCDefinition>An approximate calculation of the delivery date.</nciodm:CDISCDefinition>
                    <nciodm:PreferredTerm>Expected Date of Confinement</nciodm:PreferredTerm>
                </EnumeratedItem>
                <EnumeratedItem CodedValue="Estimated Gestational Age" nciodm:ExtCodeID="C122188">
                    <nciodm:CDISCSynonym>Estimated Gestational Age</nciodm:CDISCSynonym>
                    <nciodm:CDISCDefinition>An approximate calculation of the gestational age of the fetus.</nciodm:CDISCDefinition>
                    <nciodm:PreferredTerm>Estimated Gestational Age</nciodm:PreferredTerm>
                </EnumeratedItem>
                <EnumeratedItem CodedValue="Last Menstrual Period Start Date" nciodm:ExtCodeID="C81257">
                    <nciodm:CDISCSynonym>Last Menstrual Period Start Date</nciodm:CDISCSynonym>
                    <nciodm:CDISCDefinition>The first day of the most recent menstrual cycle.</nciodm:CDISCDefinition>
                    <nciodm:PreferredTerm>Last Menstrual Period</nciodm:PreferredTerm>
                </EnumeratedItem>
                <EnumeratedItem CodedValue="Menarche Age" nciodm:ExtCodeID="C19666">
                    <nciodm:CDISCSynonym>Menarche Age</nciodm:CDISCSynonym>
                    <nciodm:CDISCDefinition>The age at which the first menstruation event occurred. (NCI)</nciodm:CDISCDefinition>
                    <nciodm:PreferredTerm>Age at Menarche</nciodm:PreferredTerm>
                </EnumeratedItem>
                <EnumeratedItem CodedValue="Menopause Age" nciodm:ExtCodeID="C106497">
                    <nciodm:CDISCSynonym>Menopause Age</nciodm:CDISCSynonym>
                    <nciodm:CDISCDefinition>The age at which permanent cessation of menses occurred. (NCI)</nciodm:CDISCDefinition>
                    <nciodm:PreferredTerm>Age at Menopause</nciodm:PreferredTerm>
                </EnumeratedItem>
                <EnumeratedItem CodedValue="Menopause Status" nciodm:ExtCodeID="C106541">
                    <nciodm:CDISCSynonym>Menopause Status</nciodm:CDISCSynonym>
                    <nciodm:CDISCDefinition>The status of a female with respect to menopause.</nciodm:CDISCDefinition>
                    <nciodm:PreferredTerm>Menopause Status</nciodm:PreferredTerm>
                </EnumeratedItem>
                <EnumeratedItem CodedValue="Menstrual Cycle Duration" nciodm:ExtCodeID="C119549">
                    <nciodm:CDISCSynonym>Menstrual Cycle Duration</nciodm:CDISCSynonym>
                    <nciodm:CDISCDefinition>The length of time of the menses cycle, measured from the beginning of one menstrual period to the beginning of the next.</nciodm:CDISCDefinition>
                    <nciodm:PreferredTerm>Menstrual Cycle Duration</nciodm:PreferredTerm>
                </EnumeratedItem>
                <EnumeratedItem CodedValue="Miscarriage Indicator" nciodm:ExtCodeID="C122191">
                    <nciodm:CDISCSynonym>Miscarriage Indicator</nciodm:CDISCSynonym>
                    <nciodm:CDISCDefinition>An indication as to whether any pregnancies resulted in miscarriages.</nciodm:CDISCDefinition>
                    <nciodm:PreferredTerm>Miscarriage Indicator</nciodm:PreferredTerm>
                </EnumeratedItem>
                <EnumeratedItem CodedValue="Number Full Term Live Births" nciodm:ExtCodeID="C139265">
                    <nciodm:CDISCSynonym>Number Full Term Live Births</nciodm:CDISCSynonym>
                    <nciodm:CDISCDefinition>A measurement of the total number of live birth events at which the gestational age of the neonate is 39 weeks and 0 days through 40 weeks and 6 days.</nciodm:CDISCDefinition>
                    <nciodm:PreferredTerm>Number of Full Term Live Births</nciodm:PreferredTerm>
                </EnumeratedItem>
                <EnumeratedItem CodedValue="Number of Abortions" nciodm:ExtCodeID="C106550">
                    <nciodm:CDISCSynonym>Number of Abortions</nciodm:CDISCSynonym>
                    <nciodm:CDISCDefinition>A measurement of the total number of instances in which there has been a spontaneous termination of pregnancy (miscarriage) or elective termination of pregnancy.</nciodm:CDISCDefinition>
                    <nciodm:PreferredTerm>Number of Abortions</nciodm:PreferredTerm>
                </EnumeratedItem>
                <EnumeratedItem CodedValue="Number of Early Term Births" nciodm:ExtCodeID="C122189">
                    <nciodm:CDISCSynonym>Number of Early Term Births</nciodm:CDISCSynonym>
                    <nciodm:CDISCDefinition>A measurement of the total number of birth events at which the gestational age of the neonate is 37 weeks and 0 days through 38 weeks and 6 days.</nciodm:CDISCDefinition>
                    <nciodm:PreferredTerm>Number of Early Term Births</nciodm:PreferredTerm>
                </EnumeratedItem>
                <EnumeratedItem CodedValue="Number of Ectopic Pregnancies" nciodm:ExtCodeID="C120832">
                    <nciodm:CDISCSynonym>Number of Ectopic Pregnancies</nciodm:CDISCSynonym>
                    <nciodm:CDISCDefinition>A measurement of the total number of ectopic pregnancies experienced by a female subject.</nciodm:CDISCDefinition>
                    <nciodm:PreferredTerm>Number of Ectopic Pregnancies</nciodm:PreferredTerm>
                </EnumeratedItem>
                <EnumeratedItem CodedValue="Number of Full Term Births" nciodm:ExtCodeID="C122190">
                    <nciodm:CDISCSynonym>Number of Full Term Births</nciodm:CDISCSynonym>
                    <nciodm:CDISCDefinition>A measurement of the total number of birth events (both live and dead) at which the gestational age of the neonate is 39 weeks and 0 days through 40 weeks and 6 days.</nciodm:CDISCDefinition>
                    <nciodm:PreferredTerm>Number of Full Term Births</nciodm:PreferredTerm>
                </EnumeratedItem>
                <EnumeratedItem CodedValue="Number of Induced Abortions" nciodm:ExtCodeID="C120835">
                    <nciodm:CDISCSynonym>Number of Induced Abortions</nciodm:CDISCSynonym>
                    <nciodm:CDISCDefinition>A measurement of the total number of induced abortions experienced by a female subject.</nciodm:CDISCDefinition>
                    <nciodm:PreferredTerm>Number of Induced Abortions</nciodm:PreferredTerm>
                </EnumeratedItem>
                <EnumeratedItem CodedValue="Number of Late Fetal Deaths" nciodm:ExtCodeID="C120834">
                    <nciodm:CDISCSynonym>Number of Late Fetal Deaths</nciodm:CDISCSynonym>
                    <nciodm:CDISCDefinition>A measurement of the total number of fetal deaths (death of a fetus at 16 weeks, 0 days to 19 weeks, 6 days of gestation)  experienced by a female subject.</nciodm:CDISCDefinition>
                    <nciodm:PreferredTerm>Number of Late Fetal Deaths</nciodm:PreferredTerm>
                </EnumeratedItem>
                <EnumeratedItem CodedValue="Number of Live Births" nciodm:ExtCodeID="C16955">
                    <nciodm:CDISCSynonym>Number of Live Births</nciodm:CDISCSynonym>
                    <nciodm:CDISCDefinition>A measurement of the total number of live-born offspring a female has delivered.</nciodm:CDISCDefinition>
                    <nciodm:PreferredTerm>Parity</nciodm:PreferredTerm>
                </EnumeratedItem>
                <EnumeratedItem CodedValue="Number of Pregnancies" nciodm:ExtCodeID="C106551">
                    <nciodm:CDISCSynonym>Number of Pregnancies</nciodm:CDISCSynonym>
                    <nciodm:CDISCDefinition>A measurement of the total number of pregnancy events experienced by a female.</nciodm:CDISCDefinition>
                    <nciodm:PreferredTerm>Number of Pregnancies</nciodm:PreferredTerm>
                </EnumeratedItem>
                <EnumeratedItem CodedValue="Number of Premature Births" nciodm:ExtCodeID="C122193">
                    <nciodm:CDISCSynonym>Number of Premature Births</nciodm:CDISCSynonym>
                    <nciodm:CDISCDefinition>A measurement of the total number of birth events (both live and dead) at which the gestational age of the neonate is less than 37 weeks and 0 days.</nciodm:CDISCDefinition>
                    <nciodm:PreferredTerm>Number of Premature Births</nciodm:PreferredTerm>
                </EnumeratedItem>
                <EnumeratedItem CodedValue="Number of Premature Live Births" nciodm:ExtCodeID="C139266">
                    <nciodm:CDISCSynonym>Number of Premature Live Births</nciodm:CDISCSynonym>
                    <nciodm:CDISCDefinition>A measurement of the total number of live birth events at which the gestational age of the neonate is less than 37 weeks and 0 days.</nciodm:CDISCDefinition>
                    <nciodm:PreferredTerm>Number of Premature Live Births</nciodm:PreferredTerm>
                </EnumeratedItem>
                <EnumeratedItem CodedValue="Number of Previous Pregnancies" nciodm:ExtCodeID="C120836">
                    <nciodm:CDISCSynonym>Number of Previous Pregnancies</nciodm:CDISCSynonym>
                    <nciodm:CDISCDefinition>A measurement of the total number of pregnancy events experienced by the female subject prior to the current pregnancy.</nciodm:CDISCDefinition>
                    <nciodm:PreferredTerm>Number of Previous Pregnancies</nciodm:PreferredTerm>
                </EnumeratedItem>
                <EnumeratedItem CodedValue="Number of Spontaneous Abortions" nciodm:ExtCodeID="C120837">
                    <nciodm:CDISCSynonym>Number of Spontaneous Abortions</nciodm:CDISCSynonym>
                    <nciodm:CDISCDefinition>A measurement of the total number of spontaneous abortions (in which the fetus is less than 20 weeks gestational age) experienced by a female subject.</nciodm:CDISCDefinition>
                    <nciodm:PreferredTerm>Number of Spontaneous Abortions</nciodm:PreferredTerm>
                </EnumeratedItem>
                <EnumeratedItem CodedValue="Number of Stillbirths" nciodm:ExtCodeID="C139267">
                    <nciodm:CDISCSynonym>Number of Stillbirths</nciodm:CDISCSynonym>
                    <nciodm:CDISCDefinition>A measurement of the total number of birth events at which the fetus is of at least 20 weeks gestation, or of a birth weight of at least 350 grams if the gestational age is unknown, which is born without signs of life at the time of delivery, and with an Apgar score of zero at both one and five minutes.</nciodm:CDISCDefinition>
                    <nciodm:PreferredTerm>Number of Stillbirths</nciodm:PreferredTerm>
                </EnumeratedItem>
                <EnumeratedItem CodedValue="Pregnancy Confirmed Indicator" nciodm:ExtCodeID="C122192">
                    <nciodm:CDISCSynonym>Pregnancy Confirmed Indicator</nciodm:CDISCSynonym>
                    <nciodm:CDISCDefinition>An indication as to whether the subject's pregnancy has been confirmed.</nciodm:CDISCDefinition>
                    <nciodm:PreferredTerm>Pregnancy Confirmed Indicator</nciodm:PreferredTerm>
                </EnumeratedItem>
                <EnumeratedItem CodedValue="Pregnant During the Study" nciodm:ExtCodeID="C106561">
                    <nciodm:CDISCSynonym>Pregnant During the Study</nciodm:CDISCSynonym>
                    <nciodm:CDISCDefinition>An indicator as to whether a female is pregnant during the study period. (NCI)</nciodm:CDISCDefinition>
                    <nciodm:PreferredTerm>Pregnant During the Study</nciodm:PreferredTerm>
                </EnumeratedItem>
                <EnumeratedItem CodedValue="Pregnant Indicator" nciodm:ExtCodeID="C139264">
                    <nciodm:CDISCSynonym>Pregnant Indicator</nciodm:CDISCSynonym>
                    <nciodm:CDISCDefinition>An indication as to whether the subject or associated person is pregnant at the time the question is asked.</nciodm:CDISCDefinition>
                    <nciodm:PreferredTerm>Pregnancy Indicator</nciodm:PreferredTerm>
                </EnumeratedItem>
                <EnumeratedItem CodedValue="Stillbirth Indicator" nciodm:ExtCodeID="C122194">
                    <nciodm:CDISCSynonym>Stillbirth Indicator</nciodm:CDISCSynonym>
                    <nciodm:CDISCDefinition>An indication as to whether any pregnancies resulted in stillbirths.</nciodm:CDISCDefinition>
                    <nciodm:PreferredTerm>Stillbirth Indicator</nciodm:PreferredTerm>
                </EnumeratedItem>
                <nciodm:CDISCSubmissionValue>RPTEST</nciodm:CDISCSubmissionValue>
                <nciodm:CDISCSynonym>Reproductive System Findings Test Name</nciodm:CDISCSynonym>
                <nciodm:PreferredTerm>CDISC SDTM Reproductive System Findings Test Name Terminology</nciodm:PreferredTerm>
            </CodeList>
            
