<CodeList xmlns="http://www.cdisc.org/ns/odm/v1.3" xmlns:nciodm="http://ncicb.nci.nih.gov/xml/odm/EVS/CDISC" xmlns:xs="http://www.w3.org/2001/XMLSchema-instance" OID="CL.C103479.ODI V2.1A TESTCD" Name="The Oswestry Disability Index Version 2.1a Questionnaire Test Code" DataType="text" nciodm:ExtCodeID="C103479" nciodm:CodeListExtensible="No">
                <Description>
                    <TranslatedText xml:lang="en">The Oswestry Disability Index Version 2.1a test code.</TranslatedText>
                </Description>
                <EnumeratedItem CodedValue="ODI0101" nciodm:ExtCodeID="C103762">
                    <nciodm:CDISCSynonym>ODI01-Pain Intensity</nciodm:CDISCSynonym>
                    <nciodm:CDISCDefinition>The Oswestry Disability Index Version 2.1a - Section 1 - Pain intensity.</nciodm:CDISCDefinition>
                    <nciodm:PreferredTerm>ODI v2.1a - Pain Intensity</nciodm:PreferredTerm>
                </EnumeratedItem>
                <EnumeratedItem CodedValue="ODI0102" nciodm:ExtCodeID="C103763">
                    <nciodm:CDISCSynonym>ODI01-Personal Care</nciodm:CDISCSynonym>
                    <nciodm:CDISCDefinition>The Oswestry Disability Index Version 2.1a - Section 2 - Personal care (washing, dressing, etc.).</nciodm:CDISCDefinition>
                    <nciodm:PreferredTerm>ODI v2.1a - Personal Care</nciodm:PreferredTerm>
                </EnumeratedItem>
                <EnumeratedItem CodedValue="ODI0103" nciodm:ExtCodeID="C103764">
                    <nciodm:CDISCSynonym>ODI01-Lifting</nciodm:CDISCSynonym>
                    <nciodm:CDISCDefinition>The Oswestry Disability Index Version 2.1a - Section 3 - Lifting.</nciodm:CDISCDefinition>
                    <nciodm:PreferredTerm>ODI v2.1a - Lifting</nciodm:PreferredTerm>
                </EnumeratedItem>
                <EnumeratedItem CodedValue="ODI0104" nciodm:ExtCodeID="C103765">
                    <nciodm:CDISCSynonym>ODI01-Walking</nciodm:CDISCSynonym>
                    <nciodm:CDISCDefinition>The Oswestry Disability Index Version 2.1a - Section 4 - Walking.</nciodm:CDISCDefinition>
                    <nciodm:PreferredTerm>ODI v2.1a - Walking</nciodm:PreferredTerm>
                </EnumeratedItem>
                <EnumeratedItem CodedValue="ODI0105" nciodm:ExtCodeID="C103766">
                    <nciodm:CDISCSynonym>ODI01-Sitting</nciodm:CDISCSynonym>
                    <nciodm:CDISCDefinition>The Oswestry Disability Index Version 2.1a - Section 5 - Sitting.</nciodm:CDISCDefinition>
                    <nciodm:PreferredTerm>ODI v2.1a - Sitting</nciodm:PreferredTerm>
                </EnumeratedItem>
                <EnumeratedItem CodedValue="ODI0106" nciodm:ExtCodeID="C103767">
                    <nciodm:CDISCSynonym>ODI01-Standing</nciodm:CDISCSynonym>
                    <nciodm:CDISCDefinition>The Oswestry Disability Index Version 2.1a - Section 6 - Standing.</nciodm:CDISCDefinition>
                    <nciodm:PreferredTerm>ODI v2.1a - Standing</nciodm:PreferredTerm>
                </EnumeratedItem>
                <EnumeratedItem CodedValue="ODI0107" nciodm:ExtCodeID="C103768">
                    <nciodm:CDISCSynonym>ODI01-Sleeping</nciodm:CDISCSynonym>
                    <nciodm:CDISCDefinition>The Oswestry Disability Index Version 2.1a - Section 7 - Sleeping.</nciodm:CDISCDefinition>
                    <nciodm:PreferredTerm>ODI v2.1a - Sleeping</nciodm:PreferredTerm>
                </EnumeratedItem>
                <EnumeratedItem CodedValue="ODI0108" nciodm:ExtCodeID="C103769">
                    <nciodm:CDISCSynonym>ODI01-Sex Life</nciodm:CDISCSynonym>
                    <nciodm:CDISCDefinition>The Oswestry Disability Index Version 2.1a - Section 8 - Sex life (if applicable).</nciodm:CDISCDefinition>
                    <nciodm:PreferredTerm>ODI v2.1a - Sex Life</nciodm:PreferredTerm>
                </EnumeratedItem>
                <EnumeratedItem CodedValue="ODI0109" nciodm:ExtCodeID="C103770">
                    <nciodm:CDISCSynonym>ODI01-Social Life</nciodm:CDISCSynonym>
                    <nciodm:CDISCDefinition>The Oswestry Disability Index Version 2.1a - Section 9 - Social life.</nciodm:CDISCDefinition>
                    <nciodm:PreferredTerm>ODI v2.1a - Social Life</nciodm:PreferredTerm>
                </EnumeratedItem>
                <EnumeratedItem CodedValue="ODI0110" nciodm:ExtCodeID="C103771">
                    <nciodm:CDISCSynonym>ODI01-Travelling</nciodm:CDISCSynonym>
                    <nciodm:CDISCDefinition>The Oswestry Disability Index Version 2.1a - Section 10 - Travelling.</nciodm:CDISCDefinition>
                    <nciodm:PreferredTerm>ODI v2.1a - Travelling</nciodm:PreferredTerm>
                </EnumeratedItem>
                <nciodm:CDISCSubmissionValue>ODI V2.1A TESTCD</nciodm:CDISCSubmissionValue>
                <nciodm:CDISCSynonym>The Oswestry Disability Index Version 2.1a Questionnaire Test Code</nciodm:CDISCSynonym>
                <nciodm:PreferredTerm>CDISC Questionnaire ODI v2.1a Test Code Terminology</nciodm:PreferredTerm>
            </CodeList>
            
