<CodeList xmlns="http://www.cdisc.org/ns/odm/v1.3" xmlns:nciodm="http://ncicb.nci.nih.gov/xml/odm/EVS/CDISC" xmlns:xs="http://www.w3.org/2001/XMLSchema-instance" OID="CL.C103464.FIQR01TN" Name="Revised Fibromyalgia Impact Questionnaire Questionnaire Test Name" DataType="text" nciodm:ExtCodeID="C103464" nciodm:CodeListExtensible="No">
                <Description>
                    <TranslatedText xml:lang="en">Revised Fibromyalgia Impact Questionnaire test name.</TranslatedText>
                </Description>
                <EnumeratedItem CodedValue="FIQR01-Activities Sub-Total" nciodm:ExtCodeID="C118107">
                    <nciodm:CDISCSynonym>FIQR01-Activities Sub-Total</nciodm:CDISCSynonym>
                    <nciodm:CDISCDefinition>Revised Fibromyalgia Impact Questionnaire - Sub-total for activities subcategory.</nciodm:CDISCDefinition>
                    <nciodm:PreferredTerm>FIQR - Activities Sub-Total</nciodm:PreferredTerm>
                </EnumeratedItem>
                <EnumeratedItem CodedValue="FIQR01-Anxiety" nciodm:ExtCodeID="C103561">
                    <nciodm:CDISCSynonym>FIQR01-Anxiety</nciodm:CDISCSynonym>
                    <nciodm:CDISCDefinition>Revised Fibromyalgia Impact Questionnaire - Please rate your level of anxiety.</nciodm:CDISCDefinition>
                    <nciodm:PreferredTerm>FIQR - Anxiety</nciodm:PreferredTerm>
                </EnumeratedItem>
                <EnumeratedItem CodedValue="FIQR01-Balance Problems" nciodm:ExtCodeID="C103563">
                    <nciodm:CDISCSynonym>FIQR01-Balance Problems</nciodm:CDISCSynonym>
                    <nciodm:CDISCDefinition>Revised Fibromyalgia Impact Questionnaire - Please rate your level of balance problems.</nciodm:CDISCDefinition>
                    <nciodm:PreferredTerm>FIQR - Balance Problems</nciodm:PreferredTerm>
                </EnumeratedItem>
                <EnumeratedItem CodedValue="FIQR01-Brush or Comb Your Hair" nciodm:ExtCodeID="C103544">
                    <nciodm:CDISCSynonym>FIQR01-Brush or Comb Your Hair</nciodm:CDISCSynonym>
                    <nciodm:CDISCDefinition>Revised Fibromyalgia Impact Questionnaire - Brush or comb your hair.</nciodm:CDISCDefinition>
                    <nciodm:PreferredTerm>FIQR - Brush or Comb Your Hair</nciodm:PreferredTerm>
                </EnumeratedItem>
                <EnumeratedItem CodedValue="FIQR01-Change Bed Sheets" nciodm:ExtCodeID="C103550">
                    <nciodm:CDISCSynonym>FIQR01-Change Bed Sheets</nciodm:CDISCSynonym>
                    <nciodm:CDISCDefinition>Revised Fibromyalgia Impact Questionnaire - Change bed sheets.</nciodm:CDISCDefinition>
                    <nciodm:PreferredTerm>FIQR - Change Bed Sheets</nciodm:PreferredTerm>
                </EnumeratedItem>
                <EnumeratedItem CodedValue="FIQR01-Climb One Flight of Stairs" nciodm:ExtCodeID="C103549">
                    <nciodm:CDISCSynonym>FIQR01-Climb One Flight of Stairs</nciodm:CDISCSynonym>
                    <nciodm:CDISCDefinition>Revised Fibromyalgia Impact Questionnaire - Climb one flight of stairs.</nciodm:CDISCDefinition>
                    <nciodm:PreferredTerm>FIQR - Climb One Flight of Stairs</nciodm:PreferredTerm>
                </EnumeratedItem>
                <EnumeratedItem CodedValue="FIQR01-Depression" nciodm:ExtCodeID="C103559">
                    <nciodm:CDISCSynonym>FIQR01-Depression</nciodm:CDISCSynonym>
                    <nciodm:CDISCDefinition>Revised Fibromyalgia Impact Questionnaire - Please rate your level of depression.</nciodm:CDISCDefinition>
                    <nciodm:PreferredTerm>FIQR - Depression</nciodm:PreferredTerm>
                </EnumeratedItem>
                <EnumeratedItem CodedValue="FIQR01-Energy" nciodm:ExtCodeID="C103556">
                    <nciodm:CDISCSynonym>FIQR01-Energy</nciodm:CDISCSynonym>
                    <nciodm:CDISCDefinition>Revised Fibromyalgia Impact Questionnaire - Please rate your level of energy.</nciodm:CDISCDefinition>
                    <nciodm:PreferredTerm>FIQR - Energy</nciodm:PreferredTerm>
                </EnumeratedItem>
                <EnumeratedItem CodedValue="FIQR01-Fibromyalgia Prevented Goals" nciodm:ExtCodeID="C103553">
                    <nciodm:CDISCSynonym>FIQR01-Fibromyalgia Prevented Goals</nciodm:CDISCSynonym>
                    <nciodm:CDISCDefinition>Revised Fibromyalgia Impact Questionnaire - Fibromyalgia prevented me from accomplishing goals for the week.</nciodm:CDISCDefinition>
                    <nciodm:PreferredTerm>FIQR - Fibromyalgia Prevented Me from Accomplishing Goals for the Week</nciodm:PreferredTerm>
                </EnumeratedItem>
                <EnumeratedItem CodedValue="FIQR01-FIQR Total" nciodm:ExtCodeID="C118110">
                    <nciodm:CDISCSynonym>FIQR01-FIQR Total</nciodm:CDISCSynonym>
                    <nciodm:CDISCDefinition>Revised Fibromyalgia Impact Questionnaire - FIQR total.</nciodm:CDISCDefinition>
                    <nciodm:PreferredTerm>FIQR - FIQR Total</nciodm:PreferredTerm>
                </EnumeratedItem>
                <EnumeratedItem CodedValue="FIQR01-Go Shopping for Groceries" nciodm:ExtCodeID="C103552">
                    <nciodm:CDISCSynonym>FIQR01-Go Shopping for Groceries</nciodm:CDISCSynonym>
                    <nciodm:CDISCDefinition>Revised Fibromyalgia Impact Questionnaire - Go shopping for groceries.</nciodm:CDISCDefinition>
                    <nciodm:PreferredTerm>FIQR - Go Shopping for Groceries</nciodm:PreferredTerm>
                </EnumeratedItem>
                <EnumeratedItem CodedValue="FIQR01-Lift/Carry Bag Full of Groceries" nciodm:ExtCodeID="C103548">
                    <nciodm:CDISCSynonym>FIQR01-Lift/Carry Bag Full of Groceries</nciodm:CDISCSynonym>
                    <nciodm:CDISCDefinition>Revised Fibromyalgia Impact Questionnaire - Lift and carry a bag full of groceries.</nciodm:CDISCDefinition>
                    <nciodm:PreferredTerm>FIQR - Lift and Carry a Bag Full of Groceries</nciodm:PreferredTerm>
                </EnumeratedItem>
                <EnumeratedItem CodedValue="FIQR01-Memory Problems" nciodm:ExtCodeID="C103560">
                    <nciodm:CDISCSynonym>FIQR01-Memory Problems</nciodm:CDISCSynonym>
                    <nciodm:CDISCDefinition>Revised Fibromyalgia Impact Questionnaire - Please rate your level of memory problems.</nciodm:CDISCDefinition>
                    <nciodm:PreferredTerm>FIQR - Memory Problems</nciodm:PreferredTerm>
                </EnumeratedItem>
                <EnumeratedItem CodedValue="FIQR01-Overall Impact Sub-Total" nciodm:ExtCodeID="C118108">
                    <nciodm:CDISCSynonym>FIQR01-Overall Impact Sub-Total</nciodm:CDISCSynonym>
                    <nciodm:CDISCDefinition>Revised Fibromyalgia Impact Questionnaire - Sub-total for overall impact subcategory.</nciodm:CDISCDefinition>
                    <nciodm:PreferredTerm>FIQR - Overall Impact Sub-Total</nciodm:PreferredTerm>
                </EnumeratedItem>
                <EnumeratedItem CodedValue="FIQR01-Overwhelmed by Fibromyalgia" nciodm:ExtCodeID="C103554">
                    <nciodm:CDISCSynonym>FIQR01-Overwhelmed by Fibromyalgia</nciodm:CDISCSynonym>
                    <nciodm:CDISCDefinition>Revised Fibromyalgia Impact Questionnaire - I was completely overwhelmed by my fibromyalgia symptoms.</nciodm:CDISCDefinition>
                    <nciodm:PreferredTerm>FIQR - I was Completely Overwhelmed by My Fibromyalgia Symptoms</nciodm:PreferredTerm>
                </EnumeratedItem>
                <EnumeratedItem CodedValue="FIQR01-Pain" nciodm:ExtCodeID="C103555">
                    <nciodm:CDISCSynonym>FIQR01-Pain</nciodm:CDISCSynonym>
                    <nciodm:CDISCDefinition>Revised Fibromyalgia Impact Questionnaire - Please rate your level of pain.</nciodm:CDISCDefinition>
                    <nciodm:PreferredTerm>FIQR - Pain</nciodm:PreferredTerm>
                </EnumeratedItem>
                <EnumeratedItem CodedValue="FIQR01-Prepare a Homemade Meal" nciodm:ExtCodeID="C103546">
                    <nciodm:CDISCSynonym>FIQR01-Prepare a Homemade Meal</nciodm:CDISCSynonym>
                    <nciodm:CDISCDefinition>Revised Fibromyalgia Impact Questionnaire - Prepare a homemade meal.</nciodm:CDISCDefinition>
                    <nciodm:PreferredTerm>FIQR - Prepare a Homemade Meal</nciodm:PreferredTerm>
                </EnumeratedItem>
                <EnumeratedItem CodedValue="FIQR01-Sensitivity Noise/Light/Odor/Cold" nciodm:ExtCodeID="C103564">
                    <nciodm:CDISCSynonym>FIQR01-Sensitivity Noise/Light/Odor/Cold</nciodm:CDISCSynonym>
                    <nciodm:CDISCDefinition>Revised Fibromyalgia Impact Questionnaire - Please rate your level of sensitivity to loud noises, bright lights, odors and cold.</nciodm:CDISCDefinition>
                    <nciodm:PreferredTerm>FIQR - Sensitivity to Loud Noises, Bright Lights, Odors and Cold</nciodm:PreferredTerm>
                </EnumeratedItem>
                <EnumeratedItem CodedValue="FIQR01-Sit in a Chair for 45 Minutes" nciodm:ExtCodeID="C103551">
                    <nciodm:CDISCSynonym>FIQR01-Sit in a Chair for 45 Minutes</nciodm:CDISCSynonym>
                    <nciodm:CDISCDefinition>Revised Fibromyalgia Impact Questionnaire - Sit in a chair for 45 minutes.</nciodm:CDISCDefinition>
                    <nciodm:PreferredTerm>FIQR - Sit in a Chair for 45 Minutes</nciodm:PreferredTerm>
                </EnumeratedItem>
                <EnumeratedItem CodedValue="FIQR01-Stiffness" nciodm:ExtCodeID="C103557">
                    <nciodm:CDISCSynonym>FIQR01-Stiffness</nciodm:CDISCSynonym>
                    <nciodm:CDISCDefinition>Revised Fibromyalgia Impact Questionnaire - Please rate your level of stiffness.</nciodm:CDISCDefinition>
                    <nciodm:PreferredTerm>FIQR - Stiffness</nciodm:PreferredTerm>
                </EnumeratedItem>
                <EnumeratedItem CodedValue="FIQR01-Symptoms Sub-Total" nciodm:ExtCodeID="C118109">
                    <nciodm:CDISCSynonym>FIQR01-Symptoms Sub-Total</nciodm:CDISCSynonym>
                    <nciodm:CDISCDefinition>Revised Fibromyalgia Impact Questionnaire - Sub-total for symptoms subcategory.</nciodm:CDISCDefinition>
                    <nciodm:PreferredTerm>FIQR - Symptoms Sub-Total</nciodm:PreferredTerm>
                </EnumeratedItem>
                <EnumeratedItem CodedValue="FIQR01-Tenderness to Touch" nciodm:ExtCodeID="C103562">
                    <nciodm:CDISCSynonym>FIQR01-Tenderness to Touch</nciodm:CDISCSynonym>
                    <nciodm:CDISCDefinition>Revised Fibromyalgia Impact Questionnaire - Please rate your level of tenderness to touch.</nciodm:CDISCDefinition>
                    <nciodm:PreferredTerm>FIQR - Tenderness to Touch</nciodm:PreferredTerm>
                </EnumeratedItem>
                <EnumeratedItem CodedValue="FIQR01-Vacuum Scrub or Sweep Floors" nciodm:ExtCodeID="C103547">
                    <nciodm:CDISCSynonym>FIQR01-Vacuum Scrub or Sweep Floors</nciodm:CDISCSynonym>
                    <nciodm:CDISCDefinition>Revised Fibromyalgia Impact Questionnaire - Vacuum, scrub or sweep floors.</nciodm:CDISCDefinition>
                    <nciodm:PreferredTerm>FIQR - Vacuum Scrub or Sweep Floors</nciodm:PreferredTerm>
                </EnumeratedItem>
                <EnumeratedItem CodedValue="FIQR01-Walk Continuously for 20 Minutes" nciodm:ExtCodeID="C103545">
                    <nciodm:CDISCSynonym>FIQR01-Walk Continuously for 20 Minutes</nciodm:CDISCSynonym>
                    <nciodm:CDISCDefinition>Revised Fibromyalgia Impact Questionnaire - Walk continuously for 20 minutes.</nciodm:CDISCDefinition>
                    <nciodm:PreferredTerm>FIQR - Walk Continuously for 20 Minutes</nciodm:PreferredTerm>
                </EnumeratedItem>
                <EnumeratedItem CodedValue="FIQR01-Your Sleep" nciodm:ExtCodeID="C103558">
                    <nciodm:CDISCSynonym>FIQR01-Your Sleep</nciodm:CDISCSynonym>
                    <nciodm:CDISCDefinition>Revised Fibromyalgia Impact Questionnaire - Please rate the quality of your sleep.</nciodm:CDISCDefinition>
                    <nciodm:PreferredTerm>FIQR - Your Sleep</nciodm:PreferredTerm>
                </EnumeratedItem>
                <nciodm:CDISCSubmissionValue>FIQR01TN</nciodm:CDISCSubmissionValue>
                <nciodm:CDISCSynonym>Revised Fibromyalgia Impact Questionnaire Questionnaire Test Name</nciodm:CDISCSynonym>
                <nciodm:PreferredTerm>CDISC Questionnaire FIQR Test Name Terminology</nciodm:PreferredTerm>
            </CodeList>
            
