<CodeList xmlns="http://www.cdisc.org/ns/odm/v1.3" xmlns:nciodm="http://ncicb.nci.nih.gov/xml/odm/EVS/CDISC" xmlns:xs="http://www.w3.org/2001/XMLSchema-instance" OID="CL.C138235.PQL11TC" Name="Pediatric Quality of Life Neuromuscular Module Acute Version 3 Young Adult Parent Report Questionnaire Test Code" DataType="text" nciodm:ExtCodeID="C138235" nciodm:CodeListExtensible="No">
                <Description>
                    <TranslatedText xml:lang="en">Pediatric Quality of Life Neuromuscular Module Acute Version 3 Young Adult Parent Report test code.</TranslatedText>
                </Description>
                <EnumeratedItem CodedValue="PQL1101" nciodm:ExtCodeID="C138565">
                    <nciodm:CDISCSynonym>PQL11-Hard to Breathe</nciodm:CDISCSynonym>
                    <nciodm:CDISCDefinition>Pediatric Quality of Life Neuromuscular Module Acute Version 3 Young Adult Parent Report - In the past 7 days, how much of a problem has this been for your child: It is hard for my child to breathe.</nciodm:CDISCDefinition>
                    <nciodm:PreferredTerm>PedsQL Neuromuscular Module Acute Version 3.0 Parent Report for Young Adults - Hard to Breathe</nciodm:PreferredTerm>
                </EnumeratedItem>
                <EnumeratedItem CodedValue="PQL1102" nciodm:ExtCodeID="C138566">
                    <nciodm:CDISCSynonym>PQL11-Get Sick Easily</nciodm:CDISCSynonym>
                    <nciodm:CDISCDefinition>Pediatric Quality of Life Neuromuscular Module Acute Version 3 Young Adult Parent Report - In the past 7 days, how much of a problem has this been for your child: My child gets sick easily.</nciodm:CDISCDefinition>
                    <nciodm:PreferredTerm>PedsQL Neuromuscular Module Acute Version 3.0 Parent Report for Young Adults - Get Sick Easily</nciodm:PreferredTerm>
                </EnumeratedItem>
                <EnumeratedItem CodedValue="PQL1103" nciodm:ExtCodeID="C138567">
                    <nciodm:CDISCSynonym>PQL11-Get Sores and/or Rashes</nciodm:CDISCSynonym>
                    <nciodm:CDISCDefinition>Pediatric Quality of Life Neuromuscular Module Acute Version 3 Young Adult Parent Report - In the past 7 days, how much of a problem has this been for your child: My child gets sores and/or rashes.</nciodm:CDISCDefinition>
                    <nciodm:PreferredTerm>PedsQL Neuromuscular Module Acute Version 3.0 Parent Report for Young Adults - Get Sores and/or Rashes</nciodm:PreferredTerm>
                </EnumeratedItem>
                <EnumeratedItem CodedValue="PQL1104" nciodm:ExtCodeID="C138568">
                    <nciodm:CDISCSynonym>PQL11-Legs Hurt</nciodm:CDISCSynonym>
                    <nciodm:CDISCDefinition>Pediatric Quality of Life Neuromuscular Module Acute Version 3 Young Adult Parent Report - In the past 7 days, how much of a problem has this been for your child: My child's legs hurt.</nciodm:CDISCDefinition>
                    <nciodm:PreferredTerm>PedsQL Neuromuscular Module Acute Version 3.0 Parent Report for Young Adults - Legs Hurt</nciodm:PreferredTerm>
                </EnumeratedItem>
                <EnumeratedItem CodedValue="PQL1105" nciodm:ExtCodeID="C138569">
                    <nciodm:CDISCSynonym>PQL11-Feel Tired</nciodm:CDISCSynonym>
                    <nciodm:CDISCDefinition>Pediatric Quality of Life Neuromuscular Module Acute Version 3 Young Adult Parent Report - In the past 7 days, how much of a problem has this been for your child: My child feels tired.</nciodm:CDISCDefinition>
                    <nciodm:PreferredTerm>PedsQL Neuromuscular Module Acute Version 3.0 Parent Report for Young Adults - Feel Tired</nciodm:PreferredTerm>
                </EnumeratedItem>
                <EnumeratedItem CodedValue="PQL1106" nciodm:ExtCodeID="C138570">
                    <nciodm:CDISCSynonym>PQL11-Back Feels Stiff</nciodm:CDISCSynonym>
                    <nciodm:CDISCDefinition>Pediatric Quality of Life Neuromuscular Module Acute Version 3 Young Adult Parent Report - In the past 7 days, how much of a problem has this been for your child: My child's back feels stiff.</nciodm:CDISCDefinition>
                    <nciodm:PreferredTerm>PedsQL Neuromuscular Module Acute Version 3.0 Parent Report for Young Adults - Back Feels Stiff</nciodm:PreferredTerm>
                </EnumeratedItem>
                <EnumeratedItem CodedValue="PQL1107" nciodm:ExtCodeID="C138571">
                    <nciodm:CDISCSynonym>PQL11-Wake Up Tired</nciodm:CDISCSynonym>
                    <nciodm:CDISCDefinition>Pediatric Quality of Life Neuromuscular Module Acute Version 3 Young Adult Parent Report - In the past 7 days, how much of a problem has this been for your child: My child wakes up tired.</nciodm:CDISCDefinition>
                    <nciodm:PreferredTerm>PedsQL Neuromuscular Module Acute Version 3.0 Parent Report for Young Adults - Wake Up Tired</nciodm:PreferredTerm>
                </EnumeratedItem>
                <EnumeratedItem CodedValue="PQL1108" nciodm:ExtCodeID="C138572">
                    <nciodm:CDISCSynonym>PQL11-Hands Are Weak</nciodm:CDISCSynonym>
                    <nciodm:CDISCDefinition>Pediatric Quality of Life Neuromuscular Module Acute Version 3 Young Adult Parent Report - In the past 7 days, how much of a problem has this been for your child: My child's hands are weak.</nciodm:CDISCDefinition>
                    <nciodm:PreferredTerm>PedsQL Neuromuscular Module Acute Version 3.0 Parent Report for Young Adults - Hands Are Weak</nciodm:PreferredTerm>
                </EnumeratedItem>
                <EnumeratedItem CodedValue="PQL1109" nciodm:ExtCodeID="C138573">
                    <nciodm:CDISCSynonym>PQL11-Hard to Use Bathroom</nciodm:CDISCSynonym>
                    <nciodm:CDISCDefinition>Pediatric Quality of Life Neuromuscular Module Acute Version 3 Young Adult Parent Report - In the past 7 days, how much of a problem has this been for your child: It is hard for my child to use the bathroom.</nciodm:CDISCDefinition>
                    <nciodm:PreferredTerm>PedsQL Neuromuscular Module Acute Version 3.0 Parent Report for Young Adults - Hard to Use Bathroom</nciodm:PreferredTerm>
                </EnumeratedItem>
                <EnumeratedItem CodedValue="PQL1110" nciodm:ExtCodeID="C138574">
                    <nciodm:CDISCSynonym>PQL11-Hard to Gain/Lose Weight</nciodm:CDISCSynonym>
                    <nciodm:CDISCDefinition>Pediatric Quality of Life Neuromuscular Module Acute Version 3 Young Adult Parent Report - In the past 7 days, how much of a problem has this been for your child: It is hard for my child to gain or lose weight when he or she wants to.</nciodm:CDISCDefinition>
                    <nciodm:PreferredTerm>PedsQL Neuromuscular Module Acute Version 3.0 Parent Report for Young Adults - Hard to Gain or Lose Weight</nciodm:PreferredTerm>
                </EnumeratedItem>
                <EnumeratedItem CodedValue="PQL1111" nciodm:ExtCodeID="C138575">
                    <nciodm:CDISCSynonym>PQL11-Hard to Use Hands</nciodm:CDISCSynonym>
                    <nciodm:CDISCDefinition>Pediatric Quality of Life Neuromuscular Module Acute Version 3 Young Adult Parent Report - In the past 7 days, how much of a problem has this been for your child: It is hard for my child to use his or her hands.</nciodm:CDISCDefinition>
                    <nciodm:PreferredTerm>PedsQL Neuromuscular Module Acute Version 3.0 Parent Report for Young Adults - Hard to Use Hands</nciodm:PreferredTerm>
                </EnumeratedItem>
                <EnumeratedItem CodedValue="PQL1112" nciodm:ExtCodeID="C138576">
                    <nciodm:CDISCSynonym>PQL11-Hard to Swallow Food</nciodm:CDISCSynonym>
                    <nciodm:CDISCDefinition>Pediatric Quality of Life Neuromuscular Module Acute Version 3 Young Adult Parent Report - In the past 7 days, how much of a problem has this been for your child: It is hard for my child to swallow food.</nciodm:CDISCDefinition>
                    <nciodm:PreferredTerm>PedsQL Neuromuscular Module Acute Version 3.0 Parent Report for Young Adults - Hard to Swallow Food</nciodm:PreferredTerm>
                </EnumeratedItem>
                <EnumeratedItem CodedValue="PQL1113" nciodm:ExtCodeID="C138577">
                    <nciodm:CDISCSynonym>PQL11-Long Time to Bathe/Shower</nciodm:CDISCSynonym>
                    <nciodm:CDISCDefinition>Pediatric Quality of Life Neuromuscular Module Acute Version 3 Young Adult Parent Report - In the past 7 days, how much of a problem has this been for your child: It takes my child a long time to bathe or shower.</nciodm:CDISCDefinition>
                    <nciodm:PreferredTerm>PedsQL Neuromuscular Module Acute Version 3.0 Parent Report for Young Adults - Long Time to Bathe or Shower</nciodm:PreferredTerm>
                </EnumeratedItem>
                <EnumeratedItem CodedValue="PQL1114" nciodm:ExtCodeID="C138578">
                    <nciodm:CDISCSynonym>PQL11-Get Hurt Accidentally</nciodm:CDISCSynonym>
                    <nciodm:CDISCDefinition>Pediatric Quality of Life Neuromuscular Module Acute Version 3 Young Adult Parent Report - In the past 7 days, how much of a problem has this been for your child: My child gets hurt accidentally.</nciodm:CDISCDefinition>
                    <nciodm:PreferredTerm>PedsQL Neuromuscular Module Acute Version 3.0 Parent Report for Young Adults - Get Hurt Accidentally</nciodm:PreferredTerm>
                </EnumeratedItem>
                <EnumeratedItem CodedValue="PQL1115" nciodm:ExtCodeID="C138579">
                    <nciodm:CDISCSynonym>PQL11-Take Long Time to Eat</nciodm:CDISCSynonym>
                    <nciodm:CDISCDefinition>Pediatric Quality of Life Neuromuscular Module Acute Version 3 Young Adult Parent Report - In the past 7 days, how much of a problem has this been for your child: My child takes a long time to eat.</nciodm:CDISCDefinition>
                    <nciodm:PreferredTerm>PedsQL Neuromuscular Module Acute Version 3.0 Parent Report for Young Adults - Take Long Time to Eat</nciodm:PreferredTerm>
                </EnumeratedItem>
                <EnumeratedItem CodedValue="PQL1116" nciodm:ExtCodeID="C138580">
                    <nciodm:CDISCSynonym>PQL11-Hard to Turn During Night</nciodm:CDISCSynonym>
                    <nciodm:CDISCDefinition>Pediatric Quality of Life Neuromuscular Module Acute Version 3 Young Adult Parent Report - In the past 7 days, how much of a problem has this been for your child: It is hard for my child to turn him or herself during the night.</nciodm:CDISCDefinition>
                    <nciodm:PreferredTerm>PedsQL Neuromuscular Module Acute Version 3.0 Parent Report for Young Adults - Hard to Turn During Night</nciodm:PreferredTerm>
                </EnumeratedItem>
                <EnumeratedItem CodedValue="PQL1117" nciodm:ExtCodeID="C138581">
                    <nciodm:CDISCSynonym>PQL11-Hard to Go Places With Equipment</nciodm:CDISCSynonym>
                    <nciodm:CDISCDefinition>Pediatric Quality of Life Neuromuscular Module Acute Version 3 Young Adult Parent Report - In the past 7 days, how much of a problem has this been for your child: It is hard for my child to go places with his or her equipment.</nciodm:CDISCDefinition>
                    <nciodm:PreferredTerm>PedsQL Neuromuscular Module Acute Version 3.0 Parent Report for Young Adults - Hard to Go Places With Equipment</nciodm:PreferredTerm>
                </EnumeratedItem>
                <EnumeratedItem CodedValue="PQL1118" nciodm:ExtCodeID="C138582">
                    <nciodm:CDISCSynonym>PQL11-Hard Tell Doctors/Nurses How Feel</nciodm:CDISCSynonym>
                    <nciodm:CDISCDefinition>Pediatric Quality of Life Neuromuscular Module Acute Version 3 Young Adult Parent Report - In the past 7 days, how much of a problem has this been for your child: It is hard for my child to tell the doctors and nurses how he or she feels.</nciodm:CDISCDefinition>
                    <nciodm:PreferredTerm>PedsQL Neuromuscular Module Acute Version 3.0 Parent Report for Young Adults - Hard Tell Doctors and Nurses How Feel</nciodm:PreferredTerm>
                </EnumeratedItem>
                <EnumeratedItem CodedValue="PQL1119" nciodm:ExtCodeID="C138583">
                    <nciodm:CDISCSynonym>PQL11-Hard Ask Doctors/Nurses Questions</nciodm:CDISCSynonym>
                    <nciodm:CDISCDefinition>Pediatric Quality of Life Neuromuscular Module Acute Version 3 Young Adult Parent Report - In the past 7 days, how much of a problem has this been for your child: It is hard for my child to ask the doctors and nurses questions.</nciodm:CDISCDefinition>
                    <nciodm:PreferredTerm>PedsQL Neuromuscular Module Acute Version 3.0 Parent Report for Young Adults - Hard Ask Doctors and Nurses Questions</nciodm:PreferredTerm>
                </EnumeratedItem>
                <EnumeratedItem CodedValue="PQL1120" nciodm:ExtCodeID="C138584">
                    <nciodm:CDISCSynonym>PQL11-Hard Explain Illness to People</nciodm:CDISCSynonym>
                    <nciodm:CDISCDefinition>Pediatric Quality of Life Neuromuscular Module Acute Version 3 Young Adult Parent Report - In the past 7 days, how much of a problem has this been for your child: It is hard for my child to explain his or her illness to other people.</nciodm:CDISCDefinition>
                    <nciodm:PreferredTerm>PedsQL Neuromuscular Module Acute Version 3.0 Parent Report for Young Adults - Hard Explain Illness to People</nciodm:PreferredTerm>
                </EnumeratedItem>
                <EnumeratedItem CodedValue="PQL1121" nciodm:ExtCodeID="C138585">
                    <nciodm:CDISCSynonym>PQL11-Hard for Family to Plan Activities</nciodm:CDISCSynonym>
                    <nciodm:CDISCDefinition>Pediatric Quality of Life Neuromuscular Module Acute Version 3 Young Adult Parent Report - In the past 7 days, how much of a problem has this been for your child: It is hard for our family to plan activities like vacations.</nciodm:CDISCDefinition>
                    <nciodm:PreferredTerm>PedsQL Neuromuscular Module Acute Version 3.0 Parent Report for Young Adults - Hard for Family to Plan Activities</nciodm:PreferredTerm>
                </EnumeratedItem>
                <EnumeratedItem CodedValue="PQL1122" nciodm:ExtCodeID="C138586">
                    <nciodm:CDISCSynonym>PQL11-Hard for Family to Rest</nciodm:CDISCSynonym>
                    <nciodm:CDISCDefinition>Pediatric Quality of Life Neuromuscular Module Acute Version 3 Young Adult Parent Report - In the past 7 days, how much of a problem has this been for your child: It is hard for our family to get enough rest.</nciodm:CDISCDefinition>
                    <nciodm:PreferredTerm>PedsQL Neuromuscular Module Acute Version 3.0 Parent Report for Young Adults - Hard for Family to Rest</nciodm:PreferredTerm>
                </EnumeratedItem>
                <EnumeratedItem CodedValue="PQL1123" nciodm:ExtCodeID="C138587">
                    <nciodm:CDISCSynonym>PQL11-Money Problem in Our Family</nciodm:CDISCSynonym>
                    <nciodm:CDISCDefinition>Pediatric Quality of Life Neuromuscular Module Acute Version 3 Young Adult Parent Report - In the past 7 days, how much of a problem has this been for your child: I think money is a problem in our family.</nciodm:CDISCDefinition>
                    <nciodm:PreferredTerm>PedsQL Neuromuscular Module Acute Version 3.0 Parent Report for Young Adults - Money Problem in Our Family</nciodm:PreferredTerm>
                </EnumeratedItem>
                <EnumeratedItem CodedValue="PQL1124" nciodm:ExtCodeID="C138588">
                    <nciodm:CDISCSynonym>PQL11-Family Has Lot of Problems</nciodm:CDISCSynonym>
                    <nciodm:CDISCDefinition>Pediatric Quality of Life Neuromuscular Module Acute Version 3 Young Adult Parent Report - In the past 7 days, how much of a problem has this been for your child: I think our family has a lot of problems.</nciodm:CDISCDefinition>
                    <nciodm:PreferredTerm>PedsQL Neuromuscular Module Acute Version 3.0 Parent Report for Young Adults - Family Has Lot of Problems</nciodm:PreferredTerm>
                </EnumeratedItem>
                <EnumeratedItem CodedValue="PQL1125" nciodm:ExtCodeID="C138589">
                    <nciodm:CDISCSynonym>PQL11-Do Not Have Equipment Need</nciodm:CDISCSynonym>
                    <nciodm:CDISCDefinition>Pediatric Quality of Life Neuromuscular Module Acute Version 3 Young Adult Parent Report - In the past 7 days, how much of a problem has this been for your child: My child does not have the equipment he or she needs.</nciodm:CDISCDefinition>
                    <nciodm:PreferredTerm>PedsQL Neuromuscular Module Acute Version 3.0 Parent Report for Young Adults - Do Not Have Equipment Need</nciodm:PreferredTerm>
                </EnumeratedItem>
                <nciodm:CDISCSubmissionValue>PQL11TC</nciodm:CDISCSubmissionValue>
                <nciodm:CDISCSynonym>Pediatric Quality of Life Neuromuscular Module Acute Version 3 Young Adult Parent Report Questionnaire Test Code</nciodm:CDISCSynonym>
                <nciodm:PreferredTerm>CDISC Questionnaire PedsQL Neuromuscular Module Acute Version 3.0 Parent Report for Young Adults Test Code Terminology</nciodm:PreferredTerm>
            </CodeList>
            
