<CodeList xmlns="http://www.cdisc.org/ns/odm/v1.3" xmlns:nciodm="http://ncicb.nci.nih.gov/xml/odm/EVS/CDISC" xmlns:xs="http://www.w3.org/2001/XMLSchema-instance" OID="CL.C112439.EDSS01TC" Name="Kurtzke Expanded Disability Status Scale Questionnaire Test Code" DataType="text" nciodm:ExtCodeID="C112439" nciodm:CodeListExtensible="No">
                <Description>
                    <TranslatedText xml:lang="en">Kurtzke Expanded Disability Status Scale test code.</TranslatedText>
                </Description>
                <EnumeratedItem CodedValue="EDSS0101" nciodm:ExtCodeID="C112550">
                    <nciodm:CDISCSynonym>EDSS01-Expanded Disability Score</nciodm:CDISCSynonym>
                    <nciodm:CDISCDefinition>Kurtzke Expanded Disability Status Scale - Expanded disability score.</nciodm:CDISCDefinition>
                    <nciodm:PreferredTerm>EDSS - Expanded Disability Score</nciodm:PreferredTerm>
                </EnumeratedItem>
                <nciodm:CDISCSubmissionValue>EDSS01TC</nciodm:CDISCSubmissionValue>
                <nciodm:CDISCSynonym>Kurtzke Expanded Disability Status Scale Questionnaire Test Code</nciodm:CDISCSynonym>
                <nciodm:PreferredTerm>CDISC Questionnaire EDSS Test Code Terminology</nciodm:PreferredTerm>
            </CodeList>
            
