<CodeList xmlns="http://www.cdisc.org/ns/odm/v1.3" xmlns:nciodm="http://ncicb.nci.nih.gov/xml/odm/EVS/CDISC" xmlns:xs="http://www.w3.org/2001/XMLSchema-instance" OID="CL.C112438.EDSS TEST" Name="Kurtzke Expanded Disability Status Scale Questionnaire Test Name" DataType="text" nciodm:ExtCodeID="C112438" nciodm:CodeListExtensible="No">
                <Description>
                    <TranslatedText xml:lang="en">Kurtzke Expanded Disability Status Scale test name.</TranslatedText>
                </Description>
                <EnumeratedItem CodedValue="EDSS01-Expanded Disability Score" nciodm:ExtCodeID="C112550">
                    <nciodm:CDISCSynonym>EDSS01-Expanded Disability Score</nciodm:CDISCSynonym>
                    <nciodm:CDISCDefinition>Kurtzke Expanded Disability Status Scale - Expanded disability score.</nciodm:CDISCDefinition>
                    <nciodm:PreferredTerm>EDSS - Expanded Disability Score</nciodm:PreferredTerm>
                </EnumeratedItem>
                <nciodm:CDISCSubmissionValue>EDSS TEST</nciodm:CDISCSubmissionValue>
                <nciodm:CDISCSynonym>Kurtzke Expanded Disability Status Scale Questionnaire Test Name</nciodm:CDISCSynonym>
                <nciodm:PreferredTerm>CDISC Questionnaire EDSS Test Name Terminology</nciodm:PreferredTerm>
            </CodeList>
            
