<CodeList xmlns="http://www.cdisc.org/ns/odm/v1.3" xmlns:nciodm="http://ncicb.nci.nih.gov/xml/odm/EVS/CDISC" xmlns:xs="http://www.w3.org/2001/XMLSchema-instance" OID="CL.C117738.HEFATS" Name="Hepatic Findings About Test Name" DataType="text" nciodm:ExtCodeID="C117738" nciodm:CodeListExtensible="Yes">
                <Description>
                    <TranslatedText xml:lang="en">Terminology relevant to the test names that describe hepatic findings.</TranslatedText>
                </Description>
                <EnumeratedItem CodedValue="West Haven Hepatic Encephalopathy Grade" nciodm:ExtCodeID="C117747">
                    <nciodm:CDISCSynonym>West Haven Hepatic Encephalopathy Grade</nciodm:CDISCSynonym>
                    <nciodm:CDISCDefinition>A grading system to describe the severity of hepatic encephalopathy based on the level of mental status, per the West Haven Criteria. (NCI)</nciodm:CDISCDefinition>
                    <nciodm:PreferredTerm>West Haven Hepatic Encephalopathy Grade</nciodm:PreferredTerm>
                </EnumeratedItem>
                <nciodm:CDISCSubmissionValue>HEFATS</nciodm:CDISCSubmissionValue>
                <nciodm:CDISCSynonym>Hepatic Findings About Test Name</nciodm:CDISCSynonym>
                <nciodm:PreferredTerm>CDISC SDTM Hepatic Findings About Test Name Terminology</nciodm:PreferredTerm>
            </CodeList>
            
