<CodeList xmlns="http://www.cdisc.org/ns/odm/v1.3" xmlns:nciodm="http://ncicb.nci.nih.gov/xml/odm/EVS/CDISC" xmlns:xs="http://www.w3.org/2001/XMLSchema-instance" OID="CL.C147550.TSCYC1TC" Name="Trauma Symptom Checklist for Young Children Questionnaire Test Code" DataType="text" nciodm:ExtCodeID="C147550" nciodm:CodeListExtensible="No">
                <Description>
                    <TranslatedText xml:lang="en">Trauma Symptom Checklist for Young Children test code.</TranslatedText>
                </Description>
                <EnumeratedItem CodedValue="TSCYC101" nciodm:ExtCodeID="C147753">
                    <nciodm:CDISCSynonym>TSCYC1-Temper Tantrums</nciodm:CDISCSynonym>
                    <nciodm:CDISCDefinition>Trauma Symptom Checklist for Young Children - Please indicate how often he or she has done, felt, or experienced each of the following things in the last month: Temper tantrums.</nciodm:CDISCDefinition>
                    <nciodm:PreferredTerm>TSCYC - Temper Tantrums</nciodm:PreferredTerm>
                </EnumeratedItem>
                <EnumeratedItem CodedValue="TSCYC102" nciodm:ExtCodeID="C147754">
                    <nciodm:CDISCSynonym>TSCYC1-Looking Sad</nciodm:CDISCSynonym>
                    <nciodm:CDISCDefinition>Trauma Symptom Checklist for Young Children - Please indicate how often he or she has done, felt, or experienced each of the following things in the last month: Looking sad.</nciodm:CDISCDefinition>
                    <nciodm:PreferredTerm>TSCYC - Looking Sad</nciodm:PreferredTerm>
                </EnumeratedItem>
                <EnumeratedItem CodedValue="TSCYC103" nciodm:ExtCodeID="C147755">
                    <nciodm:CDISCSynonym>TSCYC1-Telling a Lie</nciodm:CDISCSynonym>
                    <nciodm:CDISCDefinition>Trauma Symptom Checklist for Young Children - Please indicate how often he or she has done, felt, or experienced each of the following things in the last month: Telling a lie.</nciodm:CDISCDefinition>
                    <nciodm:PreferredTerm>TSCYC - Telling a Lie</nciodm:PreferredTerm>
                </EnumeratedItem>
                <EnumeratedItem CodedValue="TSCYC104" nciodm:ExtCodeID="C147756">
                    <nciodm:CDISCSynonym>TSCYC1-Bad Dreams or Nightmares</nciodm:CDISCSynonym>
                    <nciodm:CDISCDefinition>Trauma Symptom Checklist for Young Children - Please indicate how often he or she has done, felt, or experienced each of the following things in the last month: Bad dreams or nightmares.</nciodm:CDISCDefinition>
                    <nciodm:PreferredTerm>TSCYC - Bad Dreams or Nightmares</nciodm:PreferredTerm>
                </EnumeratedItem>
                <EnumeratedItem CodedValue="TSCYC105" nciodm:ExtCodeID="C147757">
                    <nciodm:CDISCSynonym>TSCYC1-Living in a Fantasy World</nciodm:CDISCSynonym>
                    <nciodm:CDISCDefinition>Trauma Symptom Checklist for Young Children - Please indicate how often he or she has done, felt, or experienced each of the following things in the last month: Living in a fantasy world.</nciodm:CDISCDefinition>
                    <nciodm:PreferredTerm>TSCYC - Living in a Fantasy World</nciodm:PreferredTerm>
                </EnumeratedItem>
                <EnumeratedItem CodedValue="TSCYC106" nciodm:ExtCodeID="C147758">
                    <nciodm:CDISCSynonym>TSCYC1-Seeming to Know More About Sex</nciodm:CDISCSynonym>
                    <nciodm:CDISCDefinition>Trauma Symptom Checklist for Young Children - Please indicate how often he or she has done, felt, or experienced each of the following things in the last month: Seeming to know more about sex than he or she should.</nciodm:CDISCDefinition>
                    <nciodm:PreferredTerm>TSCYC - Seeming to Know More About Sex</nciodm:PreferredTerm>
                </EnumeratedItem>
                <EnumeratedItem CodedValue="TSCYC107" nciodm:ExtCodeID="C147759">
                    <nciodm:CDISCSynonym>TSCYC1-Being Easily Scared</nciodm:CDISCSynonym>
                    <nciodm:CDISCDefinition>Trauma Symptom Checklist for Young Children - Please indicate how often he or she has done, felt, or experienced each of the following things in the last month: Being easily scared.</nciodm:CDISCDefinition>
                    <nciodm:PreferredTerm>TSCYC - Being Easily Scared</nciodm:PreferredTerm>
                </EnumeratedItem>
                <EnumeratedItem CodedValue="TSCYC108" nciodm:ExtCodeID="C147760">
                    <nciodm:CDISCSynonym>TSCYC1-Not Wanting to Go Somewhere</nciodm:CDISCSynonym>
                    <nciodm:CDISCDefinition>Trauma Symptom Checklist for Young Children - Please indicate how often he or she has done, felt, or experienced each of the following things in the last month: Not wanting to go somewhere that reminded him or her of a bad thing from the past.</nciodm:CDISCDefinition>
                    <nciodm:PreferredTerm>TSCYC - Not Wanting to Go Somewhere</nciodm:PreferredTerm>
                </EnumeratedItem>
                <EnumeratedItem CodedValue="TSCYC109" nciodm:ExtCodeID="C147761">
                    <nciodm:CDISCSynonym>TSCYC1-Worrying Food Was Poisoned</nciodm:CDISCSynonym>
                    <nciodm:CDISCDefinition>Trauma Symptom Checklist for Young Children - Please indicate how often he or she has done, felt, or experienced each of the following things in the last month: Worrying that his or her food was poisoned.</nciodm:CDISCDefinition>
                    <nciodm:PreferredTerm>TSCYC - Worrying Food Was Poisoned</nciodm:PreferredTerm>
                </EnumeratedItem>
                <EnumeratedItem CodedValue="TSCYC110" nciodm:ExtCodeID="C147762">
                    <nciodm:CDISCSynonym>TSCYC1-Flinching When Someone Moved</nciodm:CDISCSynonym>
                    <nciodm:CDISCDefinition>Trauma Symptom Checklist for Young Children - Please indicate how often he or she has done, felt, or experienced each of the following things in the last month: Flinching or jumping when someone moved quickly or there was a loud noise.</nciodm:CDISCDefinition>
                    <nciodm:PreferredTerm>TSCYC - Flinching When Someone Moved</nciodm:PreferredTerm>
                </EnumeratedItem>
                <EnumeratedItem CodedValue="TSCYC111" nciodm:ExtCodeID="C147763">
                    <nciodm:CDISCSynonym>TSCYC1-Being Bothered by Memories</nciodm:CDISCSynonym>
                    <nciodm:CDISCDefinition>Trauma Symptom Checklist for Young Children - Please indicate how often he or she has done, felt, or experienced each of the following things in the last month: Being bothered by memories of something that happened to him or her.</nciodm:CDISCDefinition>
                    <nciodm:PreferredTerm>TSCYC - Being Bothered by Memories</nciodm:PreferredTerm>
                </EnumeratedItem>
                <EnumeratedItem CodedValue="TSCYC112" nciodm:ExtCodeID="C147764">
                    <nciodm:CDISCSynonym>TSCYC1-Worrying Someone Might Be Sexual</nciodm:CDISCSynonym>
                    <nciodm:CDISCDefinition>Trauma Symptom Checklist for Young Children - Please indicate how often he or she has done, felt, or experienced each of the following things in the last month: Worrying that someone might be sexual with him or her.</nciodm:CDISCDefinition>
                    <nciodm:PreferredTerm>TSCYC - Worrying Someone Might Be Sexual</nciodm:PreferredTerm>
                </EnumeratedItem>
                <EnumeratedItem CodedValue="TSCYC113" nciodm:ExtCodeID="C147765">
                    <nciodm:CDISCSynonym>TSCYC1-Not Wanting to Talk</nciodm:CDISCSynonym>
                    <nciodm:CDISCDefinition>Trauma Symptom Checklist for Young Children - Please indicate how often he or she has done, felt, or experienced each of the following things in the last month: Not wanting to talk about something that happened to him or her.</nciodm:CDISCDefinition>
                    <nciodm:PreferredTerm>TSCYC - Not Wanting to Talk</nciodm:PreferredTerm>
                </EnumeratedItem>
                <EnumeratedItem CodedValue="TSCYC114" nciodm:ExtCodeID="C147766">
                    <nciodm:CDISCSynonym>TSCYC1-Not Do Something Supposed to Do</nciodm:CDISCSynonym>
                    <nciodm:CDISCDefinition>Trauma Symptom Checklist for Young Children - Please indicate how often he or she has done, felt, or experienced each of the following things in the last month: Not doing something he or she was supposed to do.</nciodm:CDISCDefinition>
                    <nciodm:PreferredTerm>TSCYC - Not Do Something Supposed to Do</nciodm:PreferredTerm>
                </EnumeratedItem>
                <EnumeratedItem CodedValue="TSCYC115" nciodm:ExtCodeID="C147767">
                    <nciodm:CDISCSynonym>TSCYC1-Breaking Things on Purpose</nciodm:CDISCSynonym>
                    <nciodm:CDISCDefinition>Trauma Symptom Checklist for Young Children - Please indicate how often he or she has done, felt, or experienced each of the following things in the last month: Breaking things on purpose.</nciodm:CDISCDefinition>
                    <nciodm:PreferredTerm>TSCYC - Breaking Things on Purpose</nciodm:PreferredTerm>
                </EnumeratedItem>
                <EnumeratedItem CodedValue="TSCYC116" nciodm:ExtCodeID="C147768">
                    <nciodm:CDISCSynonym>TSCYC1-Talking About Sexual Things</nciodm:CDISCSynonym>
                    <nciodm:CDISCDefinition>Trauma Symptom Checklist for Young Children - Please indicate how often he or she has done, felt, or experienced each of the following things in the last month: Talking about sexual things.</nciodm:CDISCDefinition>
                    <nciodm:PreferredTerm>TSCYC - Talking About Sexual Things</nciodm:PreferredTerm>
                </EnumeratedItem>
                <EnumeratedItem CodedValue="TSCYC117" nciodm:ExtCodeID="C147769">
                    <nciodm:CDISCSynonym>TSCYC1-Having Trouble Concentrating</nciodm:CDISCSynonym>
                    <nciodm:CDISCDefinition>Trauma Symptom Checklist for Young Children - Please indicate how often he or she has done, felt, or experienced each of the following things in the last month: Having trouble concentrating.</nciodm:CDISCDefinition>
                    <nciodm:PreferredTerm>TSCYC - Having Trouble Concentrating</nciodm:PreferredTerm>
                </EnumeratedItem>
                <EnumeratedItem CodedValue="TSCYC118" nciodm:ExtCodeID="C147770">
                    <nciodm:CDISCSynonym>TSCYC1-Blaming for Things Weren't Fault</nciodm:CDISCSynonym>
                    <nciodm:CDISCDefinition>Trauma Symptom Checklist for Young Children - Please indicate how often he or she has done, felt, or experienced each of the following things in the last month: Blaming himself or herself for things that weren't his or her fault.</nciodm:CDISCDefinition>
                    <nciodm:PreferredTerm>TSCYC - Blaming for Things Weren't Fault</nciodm:PreferredTerm>
                </EnumeratedItem>
                <EnumeratedItem CodedValue="TSCYC119" nciodm:ExtCodeID="C147771">
                    <nciodm:CDISCSynonym>TSCYC1-Acting Frightened Reminded Past</nciodm:CDISCSynonym>
                    <nciodm:CDISCDefinition>Trauma Symptom Checklist for Young Children - Please indicate how often he or she has done, felt, or experienced each of the following things in the last month: Acting frightened when he or she was reminded of something that happened in the past.</nciodm:CDISCDefinition>
                    <nciodm:PreferredTerm>TSCYC - Acting Frightened Reminded Past</nciodm:PreferredTerm>
                </EnumeratedItem>
                <EnumeratedItem CodedValue="TSCYC120" nciodm:ExtCodeID="C147772">
                    <nciodm:CDISCSynonym>TSCYC1-Pretending to Have Sex</nciodm:CDISCSynonym>
                    <nciodm:CDISCDefinition>Trauma Symptom Checklist for Young Children - Please indicate how often he or she has done, felt, or experienced each of the following things in the last month: Pretending to have sex.</nciodm:CDISCDefinition>
                    <nciodm:PreferredTerm>TSCYC - Pretending to Have Sex</nciodm:PreferredTerm>
                </EnumeratedItem>
                <EnumeratedItem CodedValue="TSCYC121" nciodm:ExtCodeID="C147773">
                    <nciodm:CDISCSynonym>TSCYC1-Worrying Bad Things in Future</nciodm:CDISCSynonym>
                    <nciodm:CDISCDefinition>Trauma Symptom Checklist for Young Children - Please indicate how often he or she has done, felt, or experienced each of the following things in the last month: Worrying that bad things would happen in the future.</nciodm:CDISCDefinition>
                    <nciodm:PreferredTerm>TSCYC - Worrying Bad Things in Future</nciodm:PreferredTerm>
                </EnumeratedItem>
                <EnumeratedItem CodedValue="TSCYC122" nciodm:ExtCodeID="C147774">
                    <nciodm:CDISCSynonym>TSCYC1-Arguing</nciodm:CDISCSynonym>
                    <nciodm:CDISCDefinition>Trauma Symptom Checklist for Young Children - Please indicate how often he or she has done, felt, or experienced each of the following things in the last month: Arguing.</nciodm:CDISCDefinition>
                    <nciodm:PreferredTerm>TSCYC - Arguing</nciodm:PreferredTerm>
                </EnumeratedItem>
                <EnumeratedItem CodedValue="TSCYC123" nciodm:ExtCodeID="C147775">
                    <nciodm:CDISCSynonym>TSCYC1-Getting Into Physical Fights</nciodm:CDISCSynonym>
                    <nciodm:CDISCDefinition>Trauma Symptom Checklist for Young Children - Please indicate how often he or she has done, felt, or experienced each of the following things in the last month: Getting into physical fights.</nciodm:CDISCDefinition>
                    <nciodm:PreferredTerm>TSCYC - Getting Into Physical Fights</nciodm:PreferredTerm>
                </EnumeratedItem>
                <EnumeratedItem CodedValue="TSCYC124" nciodm:ExtCodeID="C147776">
                    <nciodm:CDISCSynonym>TSCYC1-Drawing Pictures Upsetting Thing</nciodm:CDISCSynonym>
                    <nciodm:CDISCDefinition>Trauma Symptom Checklist for Young Children - Please indicate how often he or she has done, felt, or experienced each of the following things in the last month: Drawing pictures about an upsetting thing that happened to him or her.</nciodm:CDISCDefinition>
                    <nciodm:PreferredTerm>TSCYC - Drawing Pictures Upsetting Thing</nciodm:PreferredTerm>
                </EnumeratedItem>
                <EnumeratedItem CodedValue="TSCYC125" nciodm:ExtCodeID="C147777">
                    <nciodm:CDISCSynonym>TSCYC1-Not Noticing What He or She Doing</nciodm:CDISCSynonym>
                    <nciodm:CDISCDefinition>Trauma Symptom Checklist for Young Children - Please indicate how often he or she has done, felt, or experienced each of the following things in the last month: Not noticing what he or she was doing.</nciodm:CDISCDefinition>
                    <nciodm:PreferredTerm>TSCYC - Not Noticing What He or She Doing</nciodm:PreferredTerm>
                </EnumeratedItem>
                <EnumeratedItem CodedValue="TSCYC126" nciodm:ExtCodeID="C147778">
                    <nciodm:CDISCSynonym>TSCYC1-Having Trouble Sitting Still</nciodm:CDISCSynonym>
                    <nciodm:CDISCDefinition>Trauma Symptom Checklist for Young Children - Please indicate how often he or she has done, felt, or experienced each of the following things in the last month: Having trouble sitting still.</nciodm:CDISCDefinition>
                    <nciodm:PreferredTerm>TSCYC - Having Trouble Sitting Still</nciodm:PreferredTerm>
                </EnumeratedItem>
                <EnumeratedItem CodedValue="TSCYC127" nciodm:ExtCodeID="C147779">
                    <nciodm:CDISCSynonym>TSCYC1-Playing Games Something Bad Past</nciodm:CDISCSynonym>
                    <nciodm:CDISCDefinition>Trauma Symptom Checklist for Young Children - Please indicate how often he or she has done, felt, or experienced each of the following things in the last month: Playing games about something bad that actually happened to him or her in the past.</nciodm:CDISCDefinition>
                    <nciodm:PreferredTerm>TSCYC - Playing Games Something Bad Past</nciodm:PreferredTerm>
                </EnumeratedItem>
                <EnumeratedItem CodedValue="TSCYC128" nciodm:ExtCodeID="C147780">
                    <nciodm:CDISCSynonym>TSCYC1-Seeming to Be in a Daze</nciodm:CDISCSynonym>
                    <nciodm:CDISCDefinition>Trauma Symptom Checklist for Young Children - Please indicate how often he or she has done, felt, or experienced each of the following things in the last month: Seeming to be in a daze.</nciodm:CDISCDefinition>
                    <nciodm:PreferredTerm>TSCYC - Seeming to Be in a Daze</nciodm:PreferredTerm>
                </EnumeratedItem>
                <EnumeratedItem CodedValue="TSCYC129" nciodm:ExtCodeID="C147781">
                    <nciodm:CDISCSynonym>TSCYC1-Trouble Remember Upsetting Thing</nciodm:CDISCSynonym>
                    <nciodm:CDISCDefinition>Trauma Symptom Checklist for Young Children - Please indicate how often he or she has done, felt, or experienced each of the following things in the last month: Having trouble remembering an upsetting thing that happened in the past.</nciodm:CDISCDefinition>
                    <nciodm:PreferredTerm>TSCYC - Trouble Remember Upsetting Thing</nciodm:PreferredTerm>
                </EnumeratedItem>
                <EnumeratedItem CodedValue="TSCYC130" nciodm:ExtCodeID="C147782">
                    <nciodm:CDISCSynonym>TSCYC1-Using Drugs</nciodm:CDISCSynonym>
                    <nciodm:CDISCDefinition>Trauma Symptom Checklist for Young Children - Please indicate how often he or she has done, felt, or experienced each of the following things in the last month: Using drugs.</nciodm:CDISCDefinition>
                    <nciodm:PreferredTerm>TSCYC - Using Drugs</nciodm:PreferredTerm>
                </EnumeratedItem>
                <EnumeratedItem CodedValue="TSCYC131" nciodm:ExtCodeID="C147783">
                    <nciodm:CDISCSynonym>TSCYC1-Fear of the Dark</nciodm:CDISCSynonym>
                    <nciodm:CDISCDefinition>Trauma Symptom Checklist for Young Children - Please indicate how often he or she has done, felt, or experienced each of the following things in the last month: Fear of the dark.</nciodm:CDISCDefinition>
                    <nciodm:PreferredTerm>TSCYC - Fear of the Dark</nciodm:PreferredTerm>
                </EnumeratedItem>
                <EnumeratedItem CodedValue="TSCYC132" nciodm:ExtCodeID="C147784">
                    <nciodm:CDISCSynonym>TSCYC1-Being Afraid to Be Alone</nciodm:CDISCSynonym>
                    <nciodm:CDISCDefinition>Trauma Symptom Checklist for Young Children - Please indicate how often he or she has done, felt, or experienced each of the following things in the last month: Being afraid to be alone.</nciodm:CDISCDefinition>
                    <nciodm:PreferredTerm>TSCYC - Being Afraid to Be Alone</nciodm:PreferredTerm>
                </EnumeratedItem>
                <EnumeratedItem CodedValue="TSCYC133" nciodm:ExtCodeID="C147785">
                    <nciodm:CDISCSynonym>TSCYC1-Spacing Out</nciodm:CDISCSynonym>
                    <nciodm:CDISCDefinition>Trauma Symptom Checklist for Young Children - Please indicate how often he or she has done, felt, or experienced each of the following things in the last month: Spacing out.</nciodm:CDISCDefinition>
                    <nciodm:PreferredTerm>TSCYC - Spacing Out</nciodm:PreferredTerm>
                </EnumeratedItem>
                <EnumeratedItem CodedValue="TSCYC134" nciodm:ExtCodeID="C147786">
                    <nciodm:CDISCSynonym>TSCYC1-Being Too Aggressive</nciodm:CDISCSynonym>
                    <nciodm:CDISCDefinition>Trauma Symptom Checklist for Young Children - Please indicate how often he or she has done, felt, or experienced each of the following things in the last month: Being too aggressive.</nciodm:CDISCDefinition>
                    <nciodm:PreferredTerm>TSCYC - Being Too Aggressive</nciodm:PreferredTerm>
                </EnumeratedItem>
                <EnumeratedItem CodedValue="TSCYC135" nciodm:ExtCodeID="C147787">
                    <nciodm:CDISCSynonym>TSCYC1-Touching Other Private Parts</nciodm:CDISCSynonym>
                    <nciodm:CDISCDefinition>Trauma Symptom Checklist for Young Children - Please indicate how often he or she has done, felt, or experienced each of the following things in the last month: Touching other children's or adults' private parts (under or over clothes).</nciodm:CDISCDefinition>
                    <nciodm:PreferredTerm>TSCYC - Touching Other Private Parts</nciodm:PreferredTerm>
                </EnumeratedItem>
                <EnumeratedItem CodedValue="TSCYC136" nciodm:ExtCodeID="C147788">
                    <nciodm:CDISCSynonym>TSCYC1-Seeing Bad Happened in the Past</nciodm:CDISCSynonym>
                    <nciodm:CDISCDefinition>Trauma Symptom Checklist for Young Children - Please indicate how often the child has done, felt, or experienced each of the following things in the last month: Suddenly seeing, feeling, or hearing something bad that happened in the past.</nciodm:CDISCDefinition>
                    <nciodm:PreferredTerm>TSCYC - Seeing Bad Happened in the Past</nciodm:PreferredTerm>
                </EnumeratedItem>
                <EnumeratedItem CodedValue="TSCYC137" nciodm:ExtCodeID="C147789">
                    <nciodm:CDISCSynonym>TSCYC1-Hearing Voices to Hurt Someone</nciodm:CDISCSynonym>
                    <nciodm:CDISCDefinition>Trauma Symptom Checklist for Young Children - Please indicate how often the child has done, felt, or experienced each of the following things in the last month: Hearing voices telling him or her to hurt someone.</nciodm:CDISCDefinition>
                    <nciodm:PreferredTerm>TSCYC - Hearing Voices to Hurt Someone</nciodm:PreferredTerm>
                </EnumeratedItem>
                <EnumeratedItem CodedValue="TSCYC138" nciodm:ExtCodeID="C147790">
                    <nciodm:CDISCSynonym>TSCYC1-Staring Off Into Space</nciodm:CDISCSynonym>
                    <nciodm:CDISCDefinition>Trauma Symptom Checklist for Young Children - Please indicate how often the child has done, felt, or experienced each of the following things in the last month: Staring off into space.</nciodm:CDISCDefinition>
                    <nciodm:PreferredTerm>TSCYC - Staring Off Into Space</nciodm:PreferredTerm>
                </EnumeratedItem>
                <EnumeratedItem CodedValue="TSCYC139" nciodm:ExtCodeID="C147791">
                    <nciodm:CDISCSynonym>TSCYC1-Changing Subject About Bad Thing</nciodm:CDISCSynonym>
                    <nciodm:CDISCDefinition>Trauma Symptom Checklist for Young Children - Please indicate how often the child has done, felt, or experienced each of the following things in the last month: Changing the subject or not answering when he or she was asked about a bad thing that happened to him or her.</nciodm:CDISCDefinition>
                    <nciodm:PreferredTerm>TSCYC - Changing Subject About Bad Thing</nciodm:PreferredTerm>
                </EnumeratedItem>
                <EnumeratedItem CodedValue="TSCYC140" nciodm:ExtCodeID="C147792">
                    <nciodm:CDISCSynonym>TSCYC1-Having a Nervous Breakdown</nciodm:CDISCSynonym>
                    <nciodm:CDISCDefinition>Trauma Symptom Checklist for Young Children - Please indicate how often the child has done, felt, or experienced each of the following things in the last month: Having a nervous breakdown.</nciodm:CDISCDefinition>
                    <nciodm:PreferredTerm>TSCYC - Having a Nervous Breakdown</nciodm:PreferredTerm>
                </EnumeratedItem>
                <EnumeratedItem CodedValue="TSCYC141" nciodm:ExtCodeID="C147793">
                    <nciodm:CDISCSynonym>TSCYC1-Not Happy Like Other Children</nciodm:CDISCSynonym>
                    <nciodm:CDISCDefinition>Trauma Symptom Checklist for Young Children - Please indicate how often the child has done, felt, or experienced each of the following things in the last month: Not laughing or being happy like other children.</nciodm:CDISCDefinition>
                    <nciodm:PreferredTerm>TSCYC - Not Happy Like Other Children</nciodm:PreferredTerm>
                </EnumeratedItem>
                <EnumeratedItem CodedValue="TSCYC142" nciodm:ExtCodeID="C147794">
                    <nciodm:CDISCSynonym>TSCYC1-Crying at Night Frightened</nciodm:CDISCSynonym>
                    <nciodm:CDISCDefinition>Trauma Symptom Checklist for Young Children - Please indicate how often the child has done, felt, or experienced each of the following things in the last month: Crying at night because he or she was frightened.</nciodm:CDISCDefinition>
                    <nciodm:PreferredTerm>TSCYC - Crying at Night Frightened</nciodm:PreferredTerm>
                </EnumeratedItem>
                <EnumeratedItem CodedValue="TSCYC143" nciodm:ExtCodeID="C147795">
                    <nciodm:CDISCSynonym>TSCYC1-Hitting Adults</nciodm:CDISCSynonym>
                    <nciodm:CDISCDefinition>Trauma Symptom Checklist for Young Children - Please indicate how often the child has done, felt, or experienced each of the following things in the last month: Hitting adults (including parents).</nciodm:CDISCDefinition>
                    <nciodm:PreferredTerm>TSCYC - Hitting Adults</nciodm:PreferredTerm>
                </EnumeratedItem>
                <EnumeratedItem CodedValue="TSCYC144" nciodm:ExtCodeID="C147796">
                    <nciodm:CDISCSynonym>TSCYC1-Being Frightened of Men</nciodm:CDISCSynonym>
                    <nciodm:CDISCDefinition>Trauma Symptom Checklist for Young Children - Please indicate how often the child has done, felt, or experienced each of the following things in the last month: Being frightened of men.</nciodm:CDISCDefinition>
                    <nciodm:PreferredTerm>TSCYC - Being Frightened of Men</nciodm:PreferredTerm>
                </EnumeratedItem>
                <EnumeratedItem CodedValue="TSCYC145" nciodm:ExtCodeID="C147797">
                    <nciodm:CDISCSynonym>TSCYC1-Not Being Able to Pay Attention</nciodm:CDISCSynonym>
                    <nciodm:CDISCDefinition>Trauma Symptom Checklist for Young Children - Please indicate how often the child has done, felt, or experienced each of the following things in the last month: Not being able to pay attention.</nciodm:CDISCDefinition>
                    <nciodm:PreferredTerm>TSCYC - Not Being Able to Pay Attention</nciodm:PreferredTerm>
                </EnumeratedItem>
                <EnumeratedItem CodedValue="TSCYC146" nciodm:ExtCodeID="C147798">
                    <nciodm:CDISCSynonym>TSCYC1-Seeming to Be Million Miles Away</nciodm:CDISCSynonym>
                    <nciodm:CDISCDefinition>Trauma Symptom Checklist for Young Children - Please indicate how often the child has done, felt, or experienced each of the following things in the last month: Seeming to be a million miles away.</nciodm:CDISCDefinition>
                    <nciodm:PreferredTerm>TSCYC - Seeming to Be Million Miles Away</nciodm:PreferredTerm>
                </EnumeratedItem>
                <EnumeratedItem CodedValue="TSCYC147" nciodm:ExtCodeID="C147799">
                    <nciodm:CDISCSynonym>TSCYC1-Being Easily Startled</nciodm:CDISCSynonym>
                    <nciodm:CDISCDefinition>Trauma Symptom Checklist for Young Children - Please indicate how often the child has done, felt, or experienced each of the following things in the last month: Being easily startled.</nciodm:CDISCDefinition>
                    <nciodm:PreferredTerm>TSCYC - Being Easily Startled</nciodm:PreferredTerm>
                </EnumeratedItem>
                <EnumeratedItem CodedValue="TSCYC148" nciodm:ExtCodeID="C147800">
                    <nciodm:CDISCSynonym>TSCYC1-Watching Out for Possible Danger</nciodm:CDISCSynonym>
                    <nciodm:CDISCDefinition>Trauma Symptom Checklist for Young Children - Please indicate how often the child has done, felt, or experienced each of the following things in the last month: Watching out everywhere for possible danger.</nciodm:CDISCDefinition>
                    <nciodm:PreferredTerm>TSCYC - Watching Out for Possible Danger</nciodm:PreferredTerm>
                </EnumeratedItem>
                <EnumeratedItem CodedValue="TSCYC149" nciodm:ExtCodeID="C147801">
                    <nciodm:CDISCSynonym>TSCYC1-No Longer Doing Things Enjoy</nciodm:CDISCSynonym>
                    <nciodm:CDISCDefinition>Trauma Symptom Checklist for Young Children - Please indicate how often the child has done, felt, or experienced each of the following things in the last month: No longer doing things that he or she used to enjoy.</nciodm:CDISCDefinition>
                    <nciodm:PreferredTerm>TSCYC - No Longer Doing Things Enjoy</nciodm:PreferredTerm>
                </EnumeratedItem>
                <EnumeratedItem CodedValue="TSCYC150" nciodm:ExtCodeID="C147802">
                    <nciodm:CDISCSynonym>TSCYC1-Frightened Something Sexual Seen</nciodm:CDISCSynonym>
                    <nciodm:CDISCDefinition>Trauma Symptom Checklist for Young Children - Please indicate how often the child has done, felt, or experienced each of the following things in the last month: Becoming frightened or disturbed when something sexual was mentioned or seen.</nciodm:CDISCDefinition>
                    <nciodm:PreferredTerm>TSCYC - Frightened Something Sexual Seen</nciodm:PreferredTerm>
                </EnumeratedItem>
                <EnumeratedItem CodedValue="TSCYC151" nciodm:ExtCodeID="C147803">
                    <nciodm:CDISCSynonym>TSCYC1-Not Sleeping for Two or More Days</nciodm:CDISCSynonym>
                    <nciodm:CDISCDefinition>Trauma Symptom Checklist for Young Children - Please indicate how often the child has done, felt, or experienced each of the following things in the last month: Not sleeping for two or more days.</nciodm:CDISCDefinition>
                    <nciodm:PreferredTerm>TSCYC - Not Sleeping for Two or More Days</nciodm:PreferredTerm>
                </EnumeratedItem>
                <EnumeratedItem CodedValue="TSCYC152" nciodm:ExtCodeID="C147804">
                    <nciodm:CDISCSynonym>TSCYC1-Not Paying Attention in Own World</nciodm:CDISCSynonym>
                    <nciodm:CDISCDefinition>Trauma Symptom Checklist for Young Children - Please indicate how often the child has done, felt, or experienced each of the following things in the last month: Not paying attention because he or she was in his or her own world.</nciodm:CDISCDefinition>
                    <nciodm:PreferredTerm>TSCYC - Not Paying Attention in Own World</nciodm:PreferredTerm>
                </EnumeratedItem>
                <EnumeratedItem CodedValue="TSCYC153" nciodm:ExtCodeID="C147805">
                    <nciodm:CDISCSynonym>TSCYC1-Making Mistakes</nciodm:CDISCSynonym>
                    <nciodm:CDISCDefinition>Trauma Symptom Checklist for Young Children - Please indicate how often the child has done, felt, or experienced each of the following things in the last month: Making mistakes.</nciodm:CDISCDefinition>
                    <nciodm:PreferredTerm>TSCYC - Making Mistakes</nciodm:PreferredTerm>
                </EnumeratedItem>
                <EnumeratedItem CodedValue="TSCYC154" nciodm:ExtCodeID="C147806">
                    <nciodm:CDISCSynonym>TSCYC1-Crying for No Obvious Reason</nciodm:CDISCSynonym>
                    <nciodm:CDISCDefinition>Trauma Symptom Checklist for Young Children - Please indicate how often the child has done, felt, or experienced each of the following things in the last month: Crying for no obvious reason.</nciodm:CDISCDefinition>
                    <nciodm:PreferredTerm>TSCYC - Crying for No Obvious Reason</nciodm:PreferredTerm>
                </EnumeratedItem>
                <EnumeratedItem CodedValue="TSCYC155" nciodm:ExtCodeID="C147807">
                    <nciodm:CDISCSynonym>TSCYC1-Not Wanting to Be Around Someone</nciodm:CDISCSynonym>
                    <nciodm:CDISCDefinition>Trauma Symptom Checklist for Young Children - Please indicate how often the child has done, felt, or experienced each of the following things in the last month: Not wanting to be around someone who did something bad to him or her or reminded him or her of something bad.</nciodm:CDISCDefinition>
                    <nciodm:PreferredTerm>TSCYC - Not Wanting to Be Around Someone</nciodm:PreferredTerm>
                </EnumeratedItem>
                <EnumeratedItem CodedValue="TSCYC156" nciodm:ExtCodeID="C147808">
                    <nciodm:CDISCSynonym>TSCYC1-Being Tense</nciodm:CDISCSynonym>
                    <nciodm:CDISCDefinition>Trauma Symptom Checklist for Young Children - Please indicate how often the child has done, felt, or experienced each of the following things in the last month: Being tense.</nciodm:CDISCDefinition>
                    <nciodm:PreferredTerm>TSCYC - Being Tense</nciodm:PreferredTerm>
                </EnumeratedItem>
                <EnumeratedItem CodedValue="TSCYC157" nciodm:ExtCodeID="C147809">
                    <nciodm:CDISCSynonym>TSCYC1-Worrying About People's Safety</nciodm:CDISCSynonym>
                    <nciodm:CDISCDefinition>Trauma Symptom Checklist for Young Children - Please indicate how often the child has done, felt, or experienced each of the following things in the last month: Worrying about other people's safety.</nciodm:CDISCDefinition>
                    <nciodm:PreferredTerm>TSCYC - Worrying About People's Safety</nciodm:PreferredTerm>
                </EnumeratedItem>
                <EnumeratedItem CodedValue="TSCYC158" nciodm:ExtCodeID="C147810">
                    <nciodm:CDISCSynonym>TSCYC1-Very Angry Over a Little Thing</nciodm:CDISCSynonym>
                    <nciodm:CDISCDefinition>Trauma Symptom Checklist for Young Children - Please indicate how often the child has done, felt, or experienced each of the following things in the last month: Becoming very angry over a little thing.</nciodm:CDISCDefinition>
                    <nciodm:PreferredTerm>TSCYC - Very Angry Over a Little Thing</nciodm:PreferredTerm>
                </EnumeratedItem>
                <EnumeratedItem CodedValue="TSCYC159" nciodm:ExtCodeID="C147811">
                    <nciodm:CDISCSynonym>TSCYC1-Drawing Pictures About Sex Things</nciodm:CDISCSynonym>
                    <nciodm:CDISCDefinition>Trauma Symptom Checklist for Young Children - Please indicate how often the child has done, felt, or experienced each of the following things in the last month: Drawing pictures about sexual things.</nciodm:CDISCDefinition>
                    <nciodm:PreferredTerm>TSCYC - Drawing Pictures About Sex Things</nciodm:PreferredTerm>
                </EnumeratedItem>
                <EnumeratedItem CodedValue="TSCYC160" nciodm:ExtCodeID="C147812">
                    <nciodm:CDISCSynonym>TSCYC1-Pulling His or Her Hair Out</nciodm:CDISCSynonym>
                    <nciodm:CDISCDefinition>Trauma Symptom Checklist for Young Children - Please indicate how often the child has done, felt, or experienced each of the following things in the last month: Pulling his or her hair out.</nciodm:CDISCDefinition>
                    <nciodm:PreferredTerm>TSCYC - Pulling His or Her Hair Out</nciodm:PreferredTerm>
                </EnumeratedItem>
                <EnumeratedItem CodedValue="TSCYC161" nciodm:ExtCodeID="C147813">
                    <nciodm:CDISCSynonym>TSCYC1-Calling Himself or Herself Bad</nciodm:CDISCSynonym>
                    <nciodm:CDISCDefinition>Trauma Symptom Checklist for Young Children - Please indicate how often the child has done, felt, or experienced each of the following things in the last month: Calling himself or herself bad, stupid, or ugly.</nciodm:CDISCDefinition>
                    <nciodm:PreferredTerm>TSCYC - Calling Himself or Herself Bad</nciodm:PreferredTerm>
                </EnumeratedItem>
                <EnumeratedItem CodedValue="TSCYC162" nciodm:ExtCodeID="C147814">
                    <nciodm:CDISCSynonym>TSCYC1-Throwing Things at Friends/Family</nciodm:CDISCSynonym>
                    <nciodm:CDISCDefinition>Trauma Symptom Checklist for Young Children - Please indicate how often the child has done, felt, or experienced each of the following things in the last month: Throwing things at friends or family members.</nciodm:CDISCDefinition>
                    <nciodm:PreferredTerm>TSCYC - Throwing Things at Friends/Family</nciodm:PreferredTerm>
                </EnumeratedItem>
                <EnumeratedItem CodedValue="TSCYC163" nciodm:ExtCodeID="C147815">
                    <nciodm:CDISCSynonym>TSCYC1-Getting Upset About the Past</nciodm:CDISCSynonym>
                    <nciodm:CDISCDefinition>Trauma Symptom Checklist for Young Children - Please indicate how often the child has done, felt, or experienced each of the following things in the last month: Getting upset about something in the past.</nciodm:CDISCDefinition>
                    <nciodm:PreferredTerm>TSCYC - Getting Upset About the Past</nciodm:PreferredTerm>
                </EnumeratedItem>
                <EnumeratedItem CodedValue="TSCYC164" nciodm:ExtCodeID="C147816">
                    <nciodm:CDISCSynonym>TSCYC1-Temporary Blindness or Paralysis</nciodm:CDISCSynonym>
                    <nciodm:CDISCDefinition>Trauma Symptom Checklist for Young Children - Please indicate how often the child has done, felt, or experienced each of the following things in the last month: Temporary blindness or paralysis.</nciodm:CDISCDefinition>
                    <nciodm:PreferredTerm>TSCYC - Temporary Blindness or Paralysis</nciodm:PreferredTerm>
                </EnumeratedItem>
                <EnumeratedItem CodedValue="TSCYC165" nciodm:ExtCodeID="C147817">
                    <nciodm:CDISCSynonym>TSCYC1-Getting Upset Something Sexual</nciodm:CDISCSynonym>
                    <nciodm:CDISCDefinition>Trauma Symptom Checklist for Young Children - Please indicate how often the child has done, felt, or experienced each of the following things in the last month: Getting upset about something sexual.</nciodm:CDISCDefinition>
                    <nciodm:PreferredTerm>TSCYC - Getting Upset Something Sexual</nciodm:PreferredTerm>
                </EnumeratedItem>
                <EnumeratedItem CodedValue="TSCYC166" nciodm:ExtCodeID="C147818">
                    <nciodm:CDISCSynonym>TSCYC1-Not Going to Bed First Time Asked</nciodm:CDISCSynonym>
                    <nciodm:CDISCDefinition>Trauma Symptom Checklist for Young Children - Please indicate how often the child has done, felt, or experienced each of the following things in the last month: Not going to bed at night the first time he or she was asked.</nciodm:CDISCDefinition>
                    <nciodm:PreferredTerm>TSCYC - Not Going to Bed First Time Asked</nciodm:PreferredTerm>
                </EnumeratedItem>
                <EnumeratedItem CodedValue="TSCYC167" nciodm:ExtCodeID="C147819">
                    <nciodm:CDISCSynonym>TSCYC1-Fear He or She Killed by Someone</nciodm:CDISCSynonym>
                    <nciodm:CDISCDefinition>Trauma Symptom Checklist for Young Children - Please indicate how often the child has done, felt, or experienced each of the following things in the last month: Fear that he or she would be killed by someone.</nciodm:CDISCDefinition>
                    <nciodm:PreferredTerm>TSCYC - Fear He or She Killed by Someone</nciodm:PreferredTerm>
                </EnumeratedItem>
                <EnumeratedItem CodedValue="TSCYC168" nciodm:ExtCodeID="C147820">
                    <nciodm:CDISCSynonym>TSCYC1-Saying Nobody Liked Him or Her</nciodm:CDISCSynonym>
                    <nciodm:CDISCDefinition>Trauma Symptom Checklist for Young Children - Please indicate how often the child has done, felt, or experienced each of the following things in the last month: Saying that nobody liked him or her.</nciodm:CDISCDefinition>
                    <nciodm:PreferredTerm>TSCYC - Saying Nobody Liked Him or Her</nciodm:PreferredTerm>
                </EnumeratedItem>
                <EnumeratedItem CodedValue="TSCYC169" nciodm:ExtCodeID="C147821">
                    <nciodm:CDISCSynonym>TSCYC1-Crying When Reminded From Past</nciodm:CDISCSynonym>
                    <nciodm:CDISCDefinition>Trauma Symptom Checklist for Young Children - Please indicate how often the child has done, felt, or experienced each of the following things in the last month: Crying when he or she was reminded of something from the past.</nciodm:CDISCDefinition>
                    <nciodm:PreferredTerm>TSCYC - Crying When Reminded From Past</nciodm:PreferredTerm>
                </EnumeratedItem>
                <EnumeratedItem CodedValue="TSCYC170" nciodm:ExtCodeID="C147822">
                    <nciodm:CDISCSynonym>TSCYC1-Saying Bad Didn't Happen</nciodm:CDISCSynonym>
                    <nciodm:CDISCDefinition>Trauma Symptom Checklist for Young Children - Please indicate how often the child has done, felt, or experienced each of the following things in the last month: Saying that something bad didn't happen to him or her even though it did happen.</nciodm:CDISCDefinition>
                    <nciodm:PreferredTerm>TSCYC - Saying Bad Didn't Happen</nciodm:PreferredTerm>
                </EnumeratedItem>
                <EnumeratedItem CodedValue="TSCYC171" nciodm:ExtCodeID="C147823">
                    <nciodm:CDISCSynonym>TSCYC1-Saying He or She Wanted to Die</nciodm:CDISCSynonym>
                    <nciodm:CDISCDefinition>Trauma Symptom Checklist for Young Children - Please indicate how often the child has done, felt, or experienced each of the following things in the last month: Saying he or she wanted to die or be killed.</nciodm:CDISCDefinition>
                    <nciodm:PreferredTerm>TSCYC - Saying He or She Wanted to Die</nciodm:PreferredTerm>
                </EnumeratedItem>
                <EnumeratedItem CodedValue="TSCYC172" nciodm:ExtCodeID="C147824">
                    <nciodm:CDISCSynonym>TSCYC1-Acting as If Didn't Have Feelings</nciodm:CDISCSynonym>
                    <nciodm:CDISCDefinition>Trauma Symptom Checklist for Young Children - Please indicate how often the child has done, felt, or experienced each of the following things in the last month: Acting as if he or she didn't have any feelings about something bad that happened to him or her.</nciodm:CDISCDefinition>
                    <nciodm:PreferredTerm>TSCYC - Acting as If Didn't Have Feelings</nciodm:PreferredTerm>
                </EnumeratedItem>
                <EnumeratedItem CodedValue="TSCYC173" nciodm:ExtCodeID="C147825">
                    <nciodm:CDISCSynonym>TSCYC1-Whining</nciodm:CDISCSynonym>
                    <nciodm:CDISCDefinition>Trauma Symptom Checklist for Young Children - Please indicate how often the child has done, felt, or experienced each of the following things in the last month: Whining.</nciodm:CDISCDefinition>
                    <nciodm:PreferredTerm>TSCYC - Whining</nciodm:PreferredTerm>
                </EnumeratedItem>
                <EnumeratedItem CodedValue="TSCYC174" nciodm:ExtCodeID="C147826">
                    <nciodm:CDISCSynonym>TSCYC1-Not Sleeping Well</nciodm:CDISCSynonym>
                    <nciodm:CDISCDefinition>Trauma Symptom Checklist for Young Children - Please indicate how often the child has done, felt, or experienced each of the following things in the last month: Not sleeping well.</nciodm:CDISCDefinition>
                    <nciodm:PreferredTerm>TSCYC - Not Sleeping Well</nciodm:PreferredTerm>
                </EnumeratedItem>
                <EnumeratedItem CodedValue="TSCYC175" nciodm:ExtCodeID="C147827">
                    <nciodm:CDISCSynonym>TSCYC1-Worrying About Sexual Things</nciodm:CDISCSynonym>
                    <nciodm:CDISCDefinition>Trauma Symptom Checklist for Young Children - Please indicate how often the child has done, felt, or experienced each of the following things in the last month: Worrying about sexual things.</nciodm:CDISCDefinition>
                    <nciodm:PreferredTerm>TSCYC - Worrying About Sexual Things</nciodm:PreferredTerm>
                </EnumeratedItem>
                <EnumeratedItem CodedValue="TSCYC176" nciodm:ExtCodeID="C147828">
                    <nciodm:CDISCSynonym>TSCYC1-Being Frightened by Things</nciodm:CDISCSynonym>
                    <nciodm:CDISCDefinition>Trauma Symptom Checklist for Young Children - Please indicate how often the child has done, felt, or experienced each of the following things in the last month: Being frightened by things that didn't used to scare him or her.</nciodm:CDISCDefinition>
                    <nciodm:PreferredTerm>TSCYC - Being Frightened by Things</nciodm:PreferredTerm>
                </EnumeratedItem>
                <EnumeratedItem CodedValue="TSCYC177" nciodm:ExtCodeID="C147829">
                    <nciodm:CDISCSynonym>TSCYC1-Hallucinating</nciodm:CDISCSynonym>
                    <nciodm:CDISCDefinition>Trauma Symptom Checklist for Young Children - Please indicate how often the child has done, felt, or experienced each of the following things in the last month: Hallucinating.</nciodm:CDISCDefinition>
                    <nciodm:PreferredTerm>TSCYC - Hallucinating</nciodm:PreferredTerm>
                </EnumeratedItem>
                <EnumeratedItem CodedValue="TSCYC178" nciodm:ExtCodeID="C147830">
                    <nciodm:CDISCSynonym>TSCYC1-Acting Like He/She Was in Trance</nciodm:CDISCSynonym>
                    <nciodm:CDISCDefinition>Trauma Symptom Checklist for Young Children - Please indicate how often the child has done, felt, or experienced each of the following things in the last month: Acting like he or she was in a trance.</nciodm:CDISCDefinition>
                    <nciodm:PreferredTerm>TSCYC - Acting Like He or She Was in Trance</nciodm:PreferredTerm>
                </EnumeratedItem>
                <EnumeratedItem CodedValue="TSCYC179" nciodm:ExtCodeID="C147831">
                    <nciodm:CDISCSynonym>TSCYC1-Forgetting His or Her Own Name</nciodm:CDISCSynonym>
                    <nciodm:CDISCDefinition>Trauma Symptom Checklist for Young Children - Please indicate how often the child has done, felt, or experienced each of the following things in the last month: Forgetting his or her own name.</nciodm:CDISCDefinition>
                    <nciodm:PreferredTerm>TSCYC - Forgetting His or Her Own Name</nciodm:PreferredTerm>
                </EnumeratedItem>
                <EnumeratedItem CodedValue="TSCYC180" nciodm:ExtCodeID="C147832">
                    <nciodm:CDISCSynonym>TSCYC1-Upset When Reminded Bad Happened</nciodm:CDISCSynonym>
                    <nciodm:CDISCDefinition>Trauma Symptom Checklist for Young Children - Please indicate how often the child has done, felt, or experienced each of the following things in the last month: Getting upset when he or she was reminded of something bad that happened.</nciodm:CDISCDefinition>
                    <nciodm:PreferredTerm>TSCYC - Upset When Reminded Bad Happened</nciodm:PreferredTerm>
                </EnumeratedItem>
                <EnumeratedItem CodedValue="TSCYC181" nciodm:ExtCodeID="C147833">
                    <nciodm:CDISCSynonym>TSCYC1-Avoiding Bad Happened in Past</nciodm:CDISCSynonym>
                    <nciodm:CDISCDefinition>Trauma Symptom Checklist for Young Children - Please indicate how often the child has done, felt, or experienced each of the following things in the last month: Avoiding things that reminded him or her of a bad thing that had happened in the past.</nciodm:CDISCDefinition>
                    <nciodm:PreferredTerm>TSCYC - Avoiding Bad Happened in Past</nciodm:PreferredTerm>
                </EnumeratedItem>
                <EnumeratedItem CodedValue="TSCYC182" nciodm:ExtCodeID="C147834">
                    <nciodm:CDISCSynonym>TSCYC1-Acting Jumpy</nciodm:CDISCSynonym>
                    <nciodm:CDISCDefinition>Trauma Symptom Checklist for Young Children - Please indicate how often the child has done, felt, or experienced each of the following things in the last month: Acting jumpy.</nciodm:CDISCDefinition>
                    <nciodm:PreferredTerm>TSCYC - Acting Jumpy</nciodm:PreferredTerm>
                </EnumeratedItem>
                <EnumeratedItem CodedValue="TSCYC183" nciodm:ExtCodeID="C147835">
                    <nciodm:CDISCSynonym>TSCYC1-Making a Mess</nciodm:CDISCSynonym>
                    <nciodm:CDISCDefinition>Trauma Symptom Checklist for Young Children - Please indicate how often the child has done, felt, or experienced each of the following things in the last month: Making a mess.</nciodm:CDISCDefinition>
                    <nciodm:PreferredTerm>TSCYC - Making a Mess</nciodm:PreferredTerm>
                </EnumeratedItem>
                <EnumeratedItem CodedValue="TSCYC184" nciodm:ExtCodeID="C147836">
                    <nciodm:CDISCSynonym>TSCYC1-Acting Sad or Depressed</nciodm:CDISCSynonym>
                    <nciodm:CDISCDefinition>Trauma Symptom Checklist for Young Children - Please indicate how often the child has done, felt, or experienced each of the following things in the last month: Acting sad or depressed.</nciodm:CDISCDefinition>
                    <nciodm:PreferredTerm>TSCYC - Acting Sad or Depressed</nciodm:PreferredTerm>
                </EnumeratedItem>
                <EnumeratedItem CodedValue="TSCYC185" nciodm:ExtCodeID="C147837">
                    <nciodm:CDISCSynonym>TSCYC1-Being Absent-minded</nciodm:CDISCSynonym>
                    <nciodm:CDISCDefinition>Trauma Symptom Checklist for Young Children - Please indicate how often the child has done, felt, or experienced each of the following things in the last month: Being so absent-minded that he or she didn't notice what was going on around him or her.</nciodm:CDISCDefinition>
                    <nciodm:PreferredTerm>TSCYC - Being Absent-minded</nciodm:PreferredTerm>
                </EnumeratedItem>
                <EnumeratedItem CodedValue="TSCYC186" nciodm:ExtCodeID="C147838">
                    <nciodm:CDISCSynonym>TSCYC1-Not Wanting to Eat Certain Foods</nciodm:CDISCSynonym>
                    <nciodm:CDISCDefinition>Trauma Symptom Checklist for Young Children - Please indicate how often the child has done, felt, or experienced each of the following things in the last month: Not wanting to eat certain foods.</nciodm:CDISCDefinition>
                    <nciodm:PreferredTerm>TSCYC - Not Wanting to Eat Certain Foods</nciodm:PreferredTerm>
                </EnumeratedItem>
                <EnumeratedItem CodedValue="TSCYC187" nciodm:ExtCodeID="C147839">
                    <nciodm:CDISCSynonym>TSCYC1-Yelling at Family/Friend/Teachers</nciodm:CDISCSynonym>
                    <nciodm:CDISCDefinition>Trauma Symptom Checklist for Young Children - Please indicate how often the child has done, felt, or experienced each of the following things in the last month: Yelling at family, friends, or teachers.</nciodm:CDISCDefinition>
                    <nciodm:PreferredTerm>TSCYC - Yelling at Family, Friends or Teachers</nciodm:PreferredTerm>
                </EnumeratedItem>
                <EnumeratedItem CodedValue="TSCYC188" nciodm:ExtCodeID="C147840">
                    <nciodm:CDISCSynonym>TSCYC1-Not Playing Because Depressed</nciodm:CDISCSynonym>
                    <nciodm:CDISCDefinition>Trauma Symptom Checklist for Young Children - Please indicate how often the child has done, felt, or experienced each of the following things in the last month: Not playing because he or she was depressed.</nciodm:CDISCDefinition>
                    <nciodm:PreferredTerm>TSCYC - Not Playing Because Depressed</nciodm:PreferredTerm>
                </EnumeratedItem>
                <EnumeratedItem CodedValue="TSCYC189" nciodm:ExtCodeID="C147841">
                    <nciodm:CDISCSynonym>TSCYC1-Being Disobedient</nciodm:CDISCSynonym>
                    <nciodm:CDISCDefinition>Trauma Symptom Checklist for Young Children - Please indicate how often the child has done, felt, or experienced each of the following things in the last month: Being disobedient.</nciodm:CDISCDefinition>
                    <nciodm:PreferredTerm>TSCYC - Being Disobedient</nciodm:PreferredTerm>
                </EnumeratedItem>
                <EnumeratedItem CodedValue="TSCYC190" nciodm:ExtCodeID="C147842">
                    <nciodm:CDISCSynonym>TSCYC1-Intentionally Hurt Other Children</nciodm:CDISCSynonym>
                    <nciodm:CDISCDefinition>Trauma Symptom Checklist for Young Children - Please indicate how often the child has done, felt, or experienced each of the following things in the last month: Intentionally hurting other children or family members.</nciodm:CDISCDefinition>
                    <nciodm:PreferredTerm>TSCYC - Intentionally Hurt Other Children</nciodm:PreferredTerm>
                </EnumeratedItem>
                <nciodm:CDISCSubmissionValue>TSCYC1TC</nciodm:CDISCSubmissionValue>
                <nciodm:CDISCSynonym>Trauma Symptom Checklist for Young Children Questionnaire Test Code</nciodm:CDISCSynonym>
                <nciodm:PreferredTerm>CDISC Questionnaire TSCYC Test Code Terminology</nciodm:PreferredTerm>
            </CodeList>
            
